VolumeContinueKey.keys,VolumeContinueKey.rt,HeadphoneContinueKey.keys,HeadphoneContinueKey.rt,CheckResp.keys,CheckResp.corr,CheckResp.rt,trials_2.thisRepN,trials_2.thisTrialN,trials_2.thisN,trials_2.thisIndex,trials_2.ran,File,Correct,participant,date,expName,psychopyVersion,OS,frameRate,ContinueResp.keys,ContinueResp.rt,WelcomeContinueKey2.keys,WelcomeContinueKey2.rt,Practice_resp.keys,Practice_resp.rt,PracticeTrials.thisRepN,PracticeTrials.thisTrialN,PracticeTrials.thisN,PracticeTrials.thisIndex,PracticeTrials.ran,SoundFile,Type,StartTast.keys,StartTast.rt,MST_resp.keys,MST_resp.corr,MST_resp.rt,trials.thisRepN,trials.thisTrialN,trials.thisN,trials.thisIndex,trials.ran,WordCorrect,Correct_type,WordType,Condition,WordTask.thisRepN,WordTask.thisTrialN,WordTask.thisN,WordTask.thisIndex,WordTask.ran,ExitKey.keys,ExitKey.rt,Feedbackbox.text
space,6.7796,space,80.2646,3,0,21.6425,0,0,0,2,1,Headphone/t2_1.wav,2,5bb8b36656161d0001002ee4,2021-06-17_20h31.51.499,Combined_MST,2020.2.10,Win32,60,,,,,,,,,,,,,,,,,,,,,,,,,,,,,,,,,,,
,,,,3,1,2.9722,0,1,1,5,1,Headphone/t3_2.wav,3,5bb8b36656161d0001002ee4,2021-06-17_20h31.51.499,Combined_MST,2020.2.10,Win32,60,,,,,,,,,,,,,,,,,,,,,,,,,,,,,,,,,,,
,,,,1,1,1.927,0,2,2,1,1,Headphone/t1_2.wav,1,5bb8b36656161d0001002ee4,2021-06-17_20h31.51.499,Combined_MST,2020.2.10,Win32,60,,,,,,,,,,,,,,,,,,,,,,,,,,,,,,,,,,,
,,,,1,1,1.7415,0,3,3,0,1,Headphone/t1_1.wav,1,5bb8b36656161d0001002ee4,2021-06-17_20h31.51.499,Combined_MST,2020.2.10,Win32,60,,,,,,,,,,,,,,,,,,,,,,,,,,,,,,,,,,,
,,,,3,1,1.8259,0,4,4,4,1,Headphone/t3_1.wav,3,5bb8b36656161d0001002ee4,2021-06-17_20h31.51.499,Combined_MST,2020.2.10,Win32,60,,,,,,,,,,,,,,,,,,,,,,,,,,,,,,,,,,,
,,,,2,1,1.4684,0,5,5,3,1,Headphone/t2_2.wav,2,5bb8b36656161d0001002ee4,2021-06-17_20h31.51.499,Combined_MST,2020.2.10,Win32,60,,,,,,,,,,,,,,,,,,,,,,,,,,,,,,,,,,,
,,,,,,,,,,,,,2,5bb8b36656161d0001002ee4,2021-06-17_20h31.51.499,Combined_MST,2020.2.10,Win32,60,space,29.7336,space,5.9387,2,19.5112,0,0,0,0,1,Training/FO_YI_LAY.wav,NEW,,,,,,,,,,,,,,,,,,,,,,
,,,,,,,,,,,,,1,5bb8b36656161d0001002ee4,2021-06-17_20h31.51.499,Combined_MST,2020.2.10,Win32,60,,,,,1,6.9302,0,1,1,1,1,Training/FO_YI_LAY.wav,OLD,,,,,,,,,,,,,,,,,,,,,,
,,,,,,,,,,,,,2,5bb8b36656161d0001002ee4,2021-06-17_20h31.51.499,Combined_MST,2020.2.10,Win32,60,,,,,2,2.0753,0,2,2,2,1,Training/YO_BU_JAY.wav,NEW,,,,,,,,,,,,,,,,,,,,,,
,,,,,,,,,,,,,2,5bb8b36656161d0001002ee4,2021-06-17_20h31.51.499,Combined_MST,2020.2.10,Win32,60,,,,,2,2.3261,0,3,3,3,1,Training/JAY_YO_BU.wav,SIMILAR,,,,,,,,,,,,,,,,,,,,,,
,,,,,,,,,,,,,1,5bb8b36656161d0001002ee4,2021-06-17_20h31.51.499,Combined_MST,2020.2.10,Win32,60,,,,,1,1.5062,0,4,4,4,1,Training/FO_YI_LAY.wav,OLD,,,,,,,,,,,,,,,,,,,,,,
,,,,,,,,,,,,TestWords/SI_VAI_CHU.wav,,5bb8b36656161d0001002ee4,2021-06-17_20h31.51.499,Combined_MST,2020.2.10,Win32,60,,,,,,,,,,,,,,space,10.8202,2,1,3.3572,0,0,0,0,1,2,NEW,NEW,F,,,,,,,,
,,,,,,,,,,,,TestWords/HO_NAY_VA.wav,,5bb8b36656161d0001002ee4,2021-06-17_20h31.51.499,Combined_MST,2020.2.10,Win32,60,,,,,,,,,,,,,,,,2,1,2.2631,0,1,1,1,1,2,NEW,NEW,F,,,,,,,,
,,,,,,,,,,,,TestWords/KAI_LAY_TA.wav,,5bb8b36656161d0001002ee4,2021-06-17_20h31.51.499,Combined_MST,2020.2.10,Win32,60,,,,,,,,,,,,,,,,1,0,1.6928,0,2,2,2,1,2,NEW,NEW,F,,,,,,,,
,,,,,,,,,,,,TestWords/PAI_LU_WA.wav,,5bb8b36656161d0001002ee4,2021-06-17_20h31.51.499,Combined_MST,2020.2.10,Win32,60,,,,,,,,,,,,,,,,2,1,4.3123,0,3,3,3,1,2,NEW,NEW,F,,,,,,,,
,,,,,,,,,,,,TestWords/WAI_VU_NA.wav,,5bb8b36656161d0001002ee4,2021-06-17_20h31.51.499,Combined_MST,2020.2.10,Win32,60,,,,,,,,,,,,,,,,2,1,6.2191,0,4,4,4,1,2,NEW,NEW,F,,,,,,,,
,,,,,,,,,,,,TestWords/VAI_HO_LA.wav,,5bb8b36656161d0001002ee4,2021-06-17_20h31.51.499,Combined_MST,2020.2.10,Win32,60,,,,,,,,,,,,,,,,1,0,1.0408,0,5,5,5,1,2,NEW,NEW,F,,,,,,,,
,,,,,,,,,,,,TestWords/GU_CHAI_PI.wav,,5bb8b36656161d0001002ee4,2021-06-17_20h31.51.499,Combined_MST,2020.2.10,Win32,60,,,,,,,,,,,,,,,,2,1,2.4151,0,6,6,6,1,2,NEW,NEW,F,,,,,,,,
,,,,,,,,,,,,TestWords/KO_SU_FAI.wav,,5bb8b36656161d0001002ee4,2021-06-17_20h31.51.499,Combined_MST,2020.2.10,Win32,60,,,,,,,,,,,,,,,,2,1,1.368,0,7,7,7,1,2,NEW,NEW,F,,,,,,,,
,,,,,,,,,,,,TestWords/KAI_LAY_TA.wav,,5bb8b36656161d0001002ee4,2021-06-17_20h31.51.499,Combined_MST,2020.2.10,Win32,60,,,,,,,,,,,,,,,,2,0,2.2454,0,8,8,8,1,1,OLD,OLD,F,,,,,,,,
,,,,,,,,,,,,TestWords/BA_KAY_LI.wav,,5bb8b36656161d0001002ee4,2021-06-17_20h31.51.499,Combined_MST,2020.2.10,Win32,60,,,,,,,,,,,,,,,,2,1,2.6834,0,9,9,9,1,2,NEW,NEW,F,,,,,,,,
,,,,,,,,,,,,TestWords/DAI_RU_CHI.wav,,5bb8b36656161d0001002ee4,2021-06-17_20h31.51.499,Combined_MST,2020.2.10,Win32,60,,,,,,,,,,,,,,,,2,1,1.8866,0,10,10,10,1,2,NEW,NEW,F,,,,,,,,
,,,,,,,,,,,,TestWords/WAI_NA_VU.wav,,5bb8b36656161d0001002ee4,2021-06-17_20h31.51.499,Combined_MST,2020.2.10,Win32,60,,,,,,,,,,,,,,,,2,1,0.7215,0,11,11,11,1,2,NEW,SIMILAR,F,,,,,,,,
,,,,,,,,,,,,TestWords/DA_CHU_VAI.wav,,5bb8b36656161d0001002ee4,2021-06-17_20h31.51.499,Combined_MST,2020.2.10,Win32,60,,,,,,,,,,,,,,,,2,1,0.8598,0,12,12,12,1,2,NEW,NEW,F,,,,,,,,
,,,,,,,,,,,,TestWords/KAI_LAY_TA.wav,,5bb8b36656161d0001002ee4,2021-06-17_20h31.51.499,Combined_MST,2020.2.10,Win32,60,,,,,,,,,,,,,,,,2,0,5.2889,0,13,13,13,1,1,OLD,OLD,F,,,,,,,,
,,,,,,,,,,,,TestWords/KO_SU_FAI.wav,,5bb8b36656161d0001002ee4,2021-06-17_20h31.51.499,Combined_MST,2020.2.10,Win32,60,,,,,,,,,,,,,,,,1,1,1.1406,0,14,14,14,1,1,OLD,OLD,F,,,,,,,,
,,,,,,,,,,,,TestWords/VU_NA_WAI.wav,,5bb8b36656161d0001002ee4,2021-06-17_20h31.51.499,Combined_MST,2020.2.10,Win32,60,,,,,,,,,,,,,,,,2,1,0.5862,0,15,15,15,1,2,NEW,SIMILAR,F,,,,,,,,
,,,,,,,,,,,,TestWords/DAI_RU_CHI.wav,,5bb8b36656161d0001002ee4,2021-06-17_20h31.51.499,Combined_MST,2020.2.10,Win32,60,,,,,,,,,,,,,,,,2,0,0.844,0,16,16,16,1,1,OLD,OLD,F,,,,,,,,
,,,,,,,,,,,,TestWords/KAY_LI_BA.wav,,5bb8b36656161d0001002ee4,2021-06-17_20h31.51.499,Combined_MST,2020.2.10,Win32,60,,,,,,,,,,,,,,,,2,1,1.2031,0,17,17,17,1,2,NEW,SIMILAR,F,,,,,,,,
,,,,,,,,,,,,TestWords/RAY_PA_TI.wav,,5bb8b36656161d0001002ee4,2021-06-17_20h31.51.499,Combined_MST,2020.2.10,Win32,60,,,,,,,,,,,,,,,,2,1,0.6895,0,18,18,18,1,2,NEW,NEW,F,,,,,,,,
,,,,,,,,,,,,TestWords/KAI_LAY_TA.wav,,5bb8b36656161d0001002ee4,2021-06-17_20h31.51.499,Combined_MST,2020.2.10,Win32,60,,,,,,,,,,,,,,,,2,0,1.5095,0,19,19,19,1,1,OLD,OLD,F,,,,,,,,
,,,,,,,,,,,,TestWords/VU_WAI_NA.wav,,5bb8b36656161d0001002ee4,2021-06-17_20h31.51.499,Combined_MST,2020.2.10,Win32,60,,,,,,,,,,,,,,,,1,0,0.4178,0,20,20,20,1,2,NEW,SIMILAR,F,,,,,,,,
,,,,,,,,,,,,TestWords/KO_SU_FAI.wav,,5bb8b36656161d0001002ee4,2021-06-17_20h31.51.499,Combined_MST,2020.2.10,Win32,60,,,,,,,,,,,,,,,,1,1,1.4634,0,21,21,21,1,1,OLD,OLD,F,,,,,,,,
,,,,,,,,,,,,TestWords/HI_NAY_VA.wav,,5bb8b36656161d0001002ee4,2021-06-17_20h31.51.499,Combined_MST,2020.2.10,Win32,60,,,,,,,,,,,,,,,,1,0,0.935,0,22,22,22,1,2,NEW,NEW,F,,,,,,,,
,,,,,,,,,,,,TestWords/KAI_LAY_TA.wav,,5bb8b36656161d0001002ee4,2021-06-17_20h31.51.499,Combined_MST,2020.2.10,Win32,60,,,,,,,,,,,,,,,,1,1,1.3183,0,23,23,23,1,1,OLD,OLD,F,,,,,,,,
,,,,,,,,,,,,TestWords/RAY_PA_TI.wav,,5bb8b36656161d0001002ee4,2021-06-17_20h31.51.499,Combined_MST,2020.2.10,Win32,60,,,,,,,,,,,,,,,,1,1,1.4222,0,24,24,24,1,1,OLD,OLD,F,,,,,,,,
,,,,,,,,,,,,TestWords/DAI_RU_CHI.wav,,5bb8b36656161d0001002ee4,2021-06-17_20h31.51.499,Combined_MST,2020.2.10,Win32,60,,,,,,,,,,,,,,,,2,0,0.7183,0,25,25,25,1,1,OLD,OLD,F,,,,,,,,
,,,,,,,,,,,,TestWords/NA_VU_WAI.wav,,5bb8b36656161d0001002ee4,2021-06-17_20h31.51.499,Combined_MST,2020.2.10,Win32,60,,,,,,,,,,,,,,,,2,1,1.819,0,26,26,26,1,2,NEW,SIMILAR,F,,,,,,,,
,,,,,,,,,,,,TestWords/KAY_BA_LI.wav,,5bb8b36656161d0001002ee4,2021-06-17_20h31.51.499,Combined_MST,2020.2.10,Win32,60,,,,,,,,,,,,,,,,2,1,1.156,0,27,27,27,1,2,NEW,SIMILAR,F,,,,,,,,
,,,,,,,,,,,,TestWords/KO_SU_FAI.wav,,5bb8b36656161d0001002ee4,2021-06-17_20h31.51.499,Combined_MST,2020.2.10,Win32,60,,,,,,,,,,,,,,,,1,1,0.646,0,28,28,28,1,1,OLD,OLD,F,,,,,,,,
,,,,,,,,,,,,TestWords/KAI_LAY_TA.wav,,5bb8b36656161d0001002ee4,2021-06-17_20h31.51.499,Combined_MST,2020.2.10,Win32,60,,,,,,,,,,,,,,,,1,1,0.7635,0,29,29,29,1,1,OLD,OLD,F,,,,,,,,
,,,,,,,,,,,,TestWords/RAY_PA_TI.wav,,5bb8b36656161d0001002ee4,2021-06-17_20h31.51.499,Combined_MST,2020.2.10,Win32,60,,,,,,,,,,,,,,,,1,1,0.6763,0,30,30,30,1,1,OLD,OLD,F,,,,,,,,
,,,,,,,,,,,,TestWords/NU_CHAY_SO.wav,,5bb8b36656161d0001002ee4,2021-06-17_20h31.51.499,Combined_MST,2020.2.10,Win32,60,,,,,,,,,,,,,,,,2,1,0.7677,0,31,31,31,1,2,NEW,NEW,F,,,,,,,,
,,,,,,,,,,,,TestWords/DAI_RU_CHI.wav,,5bb8b36656161d0001002ee4,2021-06-17_20h31.51.499,Combined_MST,2020.2.10,Win32,60,,,,,,,,,,,,,,,,1,1,3.8864,0,32,32,32,1,1,OLD,OLD,F,,,,,,,,
,,,,,,,,,,,,TestWords/NA_WAI_VU.wav,,5bb8b36656161d0001002ee4,2021-06-17_20h31.51.499,Combined_MST,2020.2.10,Win32,60,,,,,,,,,,,,,,,,1,0,1.4845,0,33,33,33,1,2,NEW,SIMILAR,F,,,,,,,,
,,,,,,,,,,,,TestWords/GA_MU_ZI.wav,,5bb8b36656161d0001002ee4,2021-06-17_20h31.51.499,Combined_MST,2020.2.10,Win32,60,,,,,,,,,,,,,,,,1,0,5.7909,0,34,34,34,1,2,NEW,NEW,F,,,,,,,,
,,,,,,,,,,,,TestWords/KAI_LAY_TA.wav,,5bb8b36656161d0001002ee4,2021-06-17_20h31.51.499,Combined_MST,2020.2.10,Win32,60,,,,,,,,,,,,,,,,1,1,0.4009,0,35,35,35,1,1,OLD,OLD,F,,,,,,,,
,,,,,,,,,,,,TestWords/LI_BA_KAY.wav,,5bb8b36656161d0001002ee4,2021-06-17_20h31.51.499,Combined_MST,2020.2.10,Win32,60,,,,,,,,,,,,,,,,2,1,0.4382,0,36,36,36,1,2,NEW,SIMILAR,F,,,,,,,,
,,,,,,,,,,,,TestWords/KO_SU_FAI.wav,,5bb8b36656161d0001002ee4,2021-06-17_20h31.51.499,Combined_MST,2020.2.10,Win32,60,,,,,,,,,,,,,,,,1,1,0.5394,0,37,37,37,1,1,OLD,OLD,F,,,,,,,,
,,,,,,,,,,,,TestWords/RAY_PA_TI.wav,,5bb8b36656161d0001002ee4,2021-06-17_20h31.51.499,Combined_MST,2020.2.10,Win32,60,,,,,,,,,,,,,,,,1,1,0.2126,0,38,38,38,1,1,OLD,OLD,F,,,,,,,,
,,,,,,,,,,,,TestWords/TAI_SA_GI.wav,,5bb8b36656161d0001002ee4,2021-06-17_20h31.51.499,Combined_MST,2020.2.10,Win32,60,,,,,,,,,,,,,,,,2,1,0.6595,0,39,39,39,1,2,NEW,NEW,F,,,,,,,,
,,,,,,,,,,,,TestWords/DAI_RU_CHI.wav,,5bb8b36656161d0001002ee4,2021-06-17_20h31.51.499,Combined_MST,2020.2.10,Win32,60,,,,,,,,,,,,,,,,1,1,0.3284,0,40,40,40,1,1,OLD,OLD,F,,,,,,,,
,,,,,,,,,,,,TestWords/GA_MU_ZI.wav,,5bb8b36656161d0001002ee4,2021-06-17_20h31.51.499,Combined_MST,2020.2.10,Win32,60,,,,,,,,,,,,,,,,2,0,0.3699,0,41,41,41,1,1,OLD,OLD,F,,,,,,,,
,,,,,,,,,,,,TestWords/KAI_LAY_TA.wav,,5bb8b36656161d0001002ee4,2021-06-17_20h31.51.499,Combined_MST,2020.2.10,Win32,60,,,,,,,,,,,,,,,,1,1,0.675,0,42,42,42,1,1,OLD,OLD,F,,,,,,,,
,,,,,,,,,,,,TestWords/GI_SA_TAI.wav,,5bb8b36656161d0001002ee4,2021-06-17_20h31.51.499,Combined_MST,2020.2.10,Win32,60,,,,,,,,,,,,,,,,2,1,0.2017,0,43,43,43,1,2,NEW,SIMILAR,F,,,,,,,,
,,,,,,,,,,,,TestWords/BA_LI_KAY.wav,,5bb8b36656161d0001002ee4,2021-06-17_20h31.51.499,Combined_MST,2020.2.10,Win32,60,,,,,,,,,,,,,,,,2,1,0.99,0,44,44,44,1,2,NEW,SIMILAR,F,,,,,,,,
,,,,,,,,,,,,TestWords/KO_SU_FAI.wav,,5bb8b36656161d0001002ee4,2021-06-17_20h31.51.499,Combined_MST,2020.2.10,Win32,60,,,,,,,,,,,,,,,,1,1,0.854,0,45,45,45,1,1,OLD,OLD,F,,,,,,,,
,,,,,,,,,,,,TestWords/RAY_PA_TI.wav,,5bb8b36656161d0001002ee4,2021-06-17_20h31.51.499,Combined_MST,2020.2.10,Win32,60,,,,,,,,,,,,,,,,1,1,0.0673,0,46,46,46,1,1,OLD,OLD,F,,,,,,,,
,,,,,,,,,,,,TestWords/GA_MU_ZI.wav,,5bb8b36656161d0001002ee4,2021-06-17_20h31.51.499,Combined_MST,2020.2.10,Win32,60,,,,,,,,,,,,,,,,1,1,0.5191,0,47,47,47,1,1,OLD,OLD,F,,,,,,,,
,,,,,,,,,,,,TestWords/LU_HAI_BO.wav,,5bb8b36656161d0001002ee4,2021-06-17_20h31.51.499,Combined_MST,2020.2.10,Win32,60,,,,,,,,,,,,,,,,2,1,0.6962,0,48,48,48,1,2,NEW,NEW,F,,,,,,,,
,,,,,,,,,,,,TestWords/KAI_LAY_TA.wav,,5bb8b36656161d0001002ee4,2021-06-17_20h31.51.499,Combined_MST,2020.2.10,Win32,60,,,,,,,,,,,,,,,,1,1,2.6347,0,49,49,49,1,1,OLD,OLD,F,,,,,,,,
,,,,,,,,,,,,TestWords/DAI_RU_CHI.wav,,5bb8b36656161d0001002ee4,2021-06-17_20h31.51.499,Combined_MST,2020.2.10,Win32,60,,,,,,,,,,,,,,,,1,1,0.8353,0,50,50,50,1,1,OLD,OLD,F,,,,,,,,
,,,,,,,,,,,,TestWords/GI_TAI_SA.wav,,5bb8b36656161d0001002ee4,2021-06-17_20h31.51.499,Combined_MST,2020.2.10,Win32,60,,,,,,,,,,,,,,,,2,1,5.0795,0,51,51,51,1,2,NEW,SIMILAR,F,,,,,,,,
,,,,,,,,,,,,TestWords/LI_KAY_BA.wav,,5bb8b36656161d0001002ee4,2021-06-17_20h31.51.499,Combined_MST,2020.2.10,Win32,60,,,,,,,,,,,,,,,,2,1,1.3215,0,52,52,52,1,2,NEW,SIMILAR,F,,,,,,,,
,,,,,,,,,,,,TestWords/RAY_PA_TI.wav,,5bb8b36656161d0001002ee4,2021-06-17_20h31.51.499,Combined_MST,2020.2.10,Win32,60,,,,,,,,,,,,,,,,1,1,0.3738,0,53,53,53,1,1,OLD,OLD,F,,,,,,,,
,,,,,,,,,,,,TestWords/KO_SU_FAI.wav,,5bb8b36656161d0001002ee4,2021-06-17_20h31.51.499,Combined_MST,2020.2.10,Win32,60,,,,,,,,,,,,,,,,2,0,0.6289,0,54,54,54,1,1,OLD,OLD,F,,,,,,,,
,,,,,,,,,,,,TestWords/DAY_PU_MO.wav,,5bb8b36656161d0001002ee4,2021-06-17_20h31.51.499,Combined_MST,2020.2.10,Win32,60,,,,,,,,,,,,,,,,2,1,0.292,0,55,55,55,1,2,NEW,NEW,F,,,,,,,,
,,,,,,,,,,,,TestWords/KAI_LAY_TA.wav,,5bb8b36656161d0001002ee4,2021-06-17_20h31.51.499,Combined_MST,2020.2.10,Win32,60,,,,,,,,,,,,,,,,2,0,0.6178,0,56,56,56,1,1,OLD,OLD,F,,,,,,,,
,,,,,,,,,,,,TestWords/GA_MU_ZI.wav,,5bb8b36656161d0001002ee4,2021-06-17_20h31.51.499,Combined_MST,2020.2.10,Win32,60,,,,,,,,,,,,,,,,1,1,0.4922,0,57,57,57,1,1,OLD,OLD,F,,,,,,,,
,,,,,,,,,,,,TestWords/CHU_LA_PAY.wav,,5bb8b36656161d0001002ee4,2021-06-17_20h31.51.499,Combined_MST,2020.2.10,Win32,60,,,,,,,,,,,,,,,,2,1,0.4095,0,58,58,58,1,2,NEW,NEW,F,,,,,,,,
,,,,,,,,,,,,TestWords/DAI_RU_CHI.wav,,5bb8b36656161d0001002ee4,2021-06-17_20h31.51.499,Combined_MST,2020.2.10,Win32,60,,,,,,,,,,,,,,,,1,1,0.9691,0,59,59,59,1,1,OLD,OLD,F,,,,,,,,
,,,,,,,,,,,,TestWords/SA_TAI_GI.wav,,5bb8b36656161d0001002ee4,2021-06-17_20h31.51.499,Combined_MST,2020.2.10,Win32,60,,,,,,,,,,,,,,,,2,1,1.2732,0,60,60,60,1,2,NEW,SIMILAR,F,,,,,,,,
,,,,,,,,,,,,TestWords/RAY_PA_TI.wav,,5bb8b36656161d0001002ee4,2021-06-17_20h31.51.499,Combined_MST,2020.2.10,Win32,60,,,,,,,,,,,,,,,,1,1,6.2288,0,61,61,61,1,1,OLD,OLD,F,,,,,,,,
,,,,,,,,,,,,TestWords/KAI_LAY_TA.wav,,5bb8b36656161d0001002ee4,2021-06-17_20h31.51.499,Combined_MST,2020.2.10,Win32,60,,,,,,,,,,,,,,,,1,1,0.6744,0,62,62,62,1,1,OLD,OLD,F,,,,,,,,
,,,,,,,,,,,,TestWords/FU_RAI_ZO.wav,,5bb8b36656161d0001002ee4,2021-06-17_20h31.51.499,Combined_MST,2020.2.10,Win32,60,,,,,,,,,,,,,,,,2,1,0.6187,0,63,63,63,1,2,NEW,NEW,F,,,,,,,,
,,,,,,,,,,,,TestWords/KO_SU_FAI.wav,,5bb8b36656161d0001002ee4,2021-06-17_20h31.51.499,Combined_MST,2020.2.10,Win32,60,,,,,,,,,,,,,,,,1,1,3.1819,0,64,64,64,1,1,OLD,OLD,F,,,,,,,,
,,,,,,,,,,,,TestWords/GA_MU_ZI.wav,,5bb8b36656161d0001002ee4,2021-06-17_20h31.51.499,Combined_MST,2020.2.10,Win32,60,,,,,,,,,,,,,,,,1,1,0.3415,0,65,65,65,1,1,OLD,OLD,F,,,,,,,,
,,,,,,,,,,,,TestWords/DAY_MO_PU.wav,,5bb8b36656161d0001002ee4,2021-06-17_20h31.51.499,Combined_MST,2020.2.10,Win32,60,,,,,,,,,,,,,,,,2,1,0.9682,0,66,66,66,1,2,NEW,SIMILAR,F,,,,,,,,
,,,,,,,,,,,,TestWords/DAI_RU_CHI.wav,,5bb8b36656161d0001002ee4,2021-06-17_20h31.51.499,Combined_MST,2020.2.10,Win32,60,,,,,,,,,,,,,,,,1,1,0.7596,0,67,67,67,1,1,OLD,OLD,F,,,,,,,,
,,,,,,,,,,,,TestWords/FI_GU_CHA.wav,,5bb8b36656161d0001002ee4,2021-06-17_20h31.51.499,Combined_MST,2020.2.10,Win32,60,,,,,,,,,,,,,,,,1,0,0.8521,0,68,68,68,1,2,NEW,NEW,F,,,,,,,,
,,,,,,,,,,,,TestWords/GA_MU_ZI.wav,,5bb8b36656161d0001002ee4,2021-06-17_20h31.51.499,Combined_MST,2020.2.10,Win32,60,,,,,,,,,,,,,,,,2,0,4.2854,0,69,69,69,1,1,OLD,OLD,F,,,,,,,,
,,,,,,,,,,,,TestWords/RAY_PA_TI.wav,,5bb8b36656161d0001002ee4,2021-06-17_20h31.51.499,Combined_MST,2020.2.10,Win32,60,,,,,,,,,,,,,,,,1,1,0.3125,0,70,70,70,1,1,OLD,OLD,F,,,,,,,,
,,,,,,,,,,,,TestWords/SA_GI_TAI.wav,,5bb8b36656161d0001002ee4,2021-06-17_20h31.51.499,Combined_MST,2020.2.10,Win32,60,,,,,,,,,,,,,,,,2,1,0.5389,0,71,71,71,1,2,NEW,SIMILAR,F,,,,,,,,
,,,,,,,,,,,,TestWords/MO_DAY_PU.wav,,5bb8b36656161d0001002ee4,2021-06-17_20h31.51.499,Combined_MST,2020.2.10,Win32,60,,,,,,,,,,,,,,,,1,0,0.6937,0,72,72,72,1,2,NEW,SIMILAR,F,,,,,,,,
,,,,,,,,,,,,TestWords/KO_SU_FAI.wav,,5bb8b36656161d0001002ee4,2021-06-17_20h31.51.499,Combined_MST,2020.2.10,Win32,60,,,,,,,,,,,,,,,,2,0,2.3115,0,73,73,73,1,1,OLD,OLD,F,,,,,,,,
,,,,,,,,,,,,TestWords/RAI_ZO_FU.wav,,5bb8b36656161d0001002ee4,2021-06-17_20h31.51.499,Combined_MST,2020.2.10,Win32,60,,,,,,,,,,,,,,,,2,1,0.7624,0,74,74,74,1,2,NEW,SIMILAR,F,,,,,,,,
,,,,,,,,,,,,TestWords/GA_MU_ZI.wav,,5bb8b36656161d0001002ee4,2021-06-17_20h31.51.499,Combined_MST,2020.2.10,Win32,60,,,,,,,,,,,,,,,,1,1,2.3019,0,75,75,75,1,1,OLD,OLD,F,,,,,,,,
,,,,,,,,,,,,TestWords/DAI_RU_CHI.wav,,5bb8b36656161d0001002ee4,2021-06-17_20h31.51.499,Combined_MST,2020.2.10,Win32,60,,,,,,,,,,,,,,,,1,1,0.3353,0,76,76,76,1,1,OLD,OLD,F,,,,,,,,
,,,,,,,,,,,,TestWords/TAI_GI_SA.wav,,5bb8b36656161d0001002ee4,2021-06-17_20h31.51.499,Combined_MST,2020.2.10,Win32,60,,,,,,,,,,,,,,,,2,1,0.4674,0,77,77,77,1,2,NEW,SIMILAR,F,,,,,,,,
,,,,,,,,,,,,TestWords/RAY_PA_TI.wav,,5bb8b36656161d0001002ee4,2021-06-17_20h31.51.499,Combined_MST,2020.2.10,Win32,60,,,,,,,,,,,,,,,,1,1,0.2936,0,78,78,78,1,1,OLD,OLD,F,,,,,,,,
,,,,,,,,,,,,TestWords/PU_DAY_MO.wav,,5bb8b36656161d0001002ee4,2021-06-17_20h31.51.499,Combined_MST,2020.2.10,Win32,60,,,,,,,,,,,,,,,,1,0,0.6881,0,79,79,79,1,2,NEW,SIMILAR,F,,,,,,,,
,,,,,,,,,,,,TestWords/KO_SU_FAI.wav,,5bb8b36656161d0001002ee4,2021-06-17_20h31.51.499,Combined_MST,2020.2.10,Win32,60,,,,,,,,,,,,,,,,1,1,0.7401,0,80,80,80,1,1,OLD,OLD,F,,,,,,,,
,,,,,,,,,,,,TestWords/ZO_RAI_FU.wav,,5bb8b36656161d0001002ee4,2021-06-17_20h31.51.499,Combined_MST,2020.2.10,Win32,60,,,,,,,,,,,,,,,,2,1,0.5407,0,81,81,81,1,2,NEW,SIMILAR,F,,,,,,,,
,,,,,,,,,,,,TestWords/GA_MU_ZI.wav,,5bb8b36656161d0001002ee4,2021-06-17_20h31.51.499,Combined_MST,2020.2.10,Win32,60,,,,,,,,,,,,,,,,1,1,0.1689,0,82,82,82,1,1,OLD,OLD,F,,,,,,,,
,,,,,,,,,,,,TestWords/RAY_PA_TI.wav,,5bb8b36656161d0001002ee4,2021-06-17_20h31.51.499,Combined_MST,2020.2.10,Win32,60,,,,,,,,,,,,,,,,1,1,0.454,0,83,83,83,1,1,OLD,OLD,F,,,,,,,,
,,,,,,,,,,,,TestWords/DAI_RU_CHI.wav,,5bb8b36656161d0001002ee4,2021-06-17_20h31.51.499,Combined_MST,2020.2.10,Win32,60,,,,,,,,,,,,,,,,1,1,0.6447,0,84,84,84,1,1,OLD,OLD,F,,,,,,,,
,,,,,,,,,,,,TestWords/GA_MU_ZI.wav,,5bb8b36656161d0001002ee4,2021-06-17_20h31.51.499,Combined_MST,2020.2.10,Win32,60,,,,,,,,,,,,,,,,1,1,0.2589,0,85,85,85,1,1,OLD,OLD,F,,,,,,,,
,,,,,,,,,,,,TestWords/NO_WA_BAY.wav,,5bb8b36656161d0001002ee4,2021-06-17_20h31.51.499,Combined_MST,2020.2.10,Win32,60,,,,,,,,,,,,,,,,2,1,0.4482,0,86,86,86,1,2,NEW,NEW,F,,,,,,,,
,,,,,,,,,,,,TestWords/FU_ZO_RAI.wav,,5bb8b36656161d0001002ee4,2021-06-17_20h31.51.499,Combined_MST,2020.2.10,Win32,60,,,,,,,,,,,,,,,,2,1,0.9896,0,87,87,87,1,2,NEW,SIMILAR,F,,,,,,,,
,,,,,,,,,,,,TestWords/KO_SU_FAI.wav,,5bb8b36656161d0001002ee4,2021-06-17_20h31.51.499,Combined_MST,2020.2.10,Win32,60,,,,,,,,,,,,,,,,1,1,2.8767,0,88,88,88,1,1,OLD,OLD,F,,,,,,,,
,,,,,,,,,,,,TestWords/PU_MO_DAY.wav,,5bb8b36656161d0001002ee4,2021-06-17_20h31.51.499,Combined_MST,2020.2.10,Win32,60,,,,,,,,,,,,,,,,1,0,1.1772,0,89,89,89,1,2,NEW,SIMILAR,F,,,,,,,,
,,,,,,,,,,,,TestWords/RAY_PA_TI.wav,,5bb8b36656161d0001002ee4,2021-06-17_20h31.51.499,Combined_MST,2020.2.10,Win32,60,,,,,,,,,,,,,,,,1,1,0.1777,0,90,90,90,1,1,OLD,OLD,F,,,,,,,,
,,,,,,,,,,,,TestWords/DAI_RU_CHI.wav,,5bb8b36656161d0001002ee4,2021-06-17_20h31.51.499,Combined_MST,2020.2.10,Win32,60,,,,,,,,,,,,,,,,1,1,0.0674,0,91,91,91,1,1,OLD,OLD,F,,,,,,,,
,,,,,,,,,,,,TestWords/RAI_FU_ZO.wav,,5bb8b36656161d0001002ee4,2021-06-17_20h31.51.499,Combined_MST,2020.2.10,Win32,60,,,,,,,,,,,,,,,,1,0,0.1961,0,92,92,92,1,2,NEW,SIMILAR,F,,,,,,,,
,,,,,,,,,,,,TestWords/GA_MU_ZI.wav,,5bb8b36656161d0001002ee4,2021-06-17_20h31.51.499,Combined_MST,2020.2.10,Win32,60,,,,,,,,,,,,,,,,1,1,0.0618,0,93,93,93,1,1,OLD,OLD,F,,,,,,,,
,,,,,,,,,,,,TestWords/HA_SI_JAI.wav,,5bb8b36656161d0001002ee4,2021-06-17_20h31.51.499,Combined_MST,2020.2.10,Win32,60,,,,,,,,,,,,,,,,2,1,0.5697,0,94,94,94,1,2,NEW,NEW,F,,,,,,,,
,,,,,,,,,,,,TestWords/MO_PU_DAY.wav,,5bb8b36656161d0001002ee4,2021-06-17_20h31.51.499,Combined_MST,2020.2.10,Win32,60,,,,,,,,,,,,,,,,2,1,1.6026,0,95,95,95,1,2,NEW,SIMILAR,F,,,,,,,,
,,,,,,,,,,,,TestWords/LA_ZAY_CHAI.wav,,5bb8b36656161d0001002ee4,2021-06-17_20h31.51.499,Combined_MST,2020.2.10,Win32,60,,,,,,,,,,,,,,,,2,1,0.8098,0,96,96,96,1,2,NEW,NEW,F,,,,,,,,
,,,,,,,,,,,,TestWords/GA_MU_ZI.wav,,5bb8b36656161d0001002ee4,2021-06-17_20h31.51.499,Combined_MST,2020.2.10,Win32,60,,,,,,,,,,,,,,,,1,1,0.08,0,97,97,97,1,1,OLD,OLD,F,,,,,,,,
,,,,,,,,,,,,TestWords/ZO_FU_RAI.wav,,5bb8b36656161d0001002ee4,2021-06-17_20h31.51.499,Combined_MST,2020.2.10,Win32,60,,,,,,,,,,,,,,,,1,0,1.6052,0,98,98,98,1,2,NEW,SIMILAR,F,,,,,,,,
,,,,,,,,,,,,TestWords/WAI_RO_JU.wav,,5bb8b36656161d0001002ee4,2021-06-17_20h31.51.499,Combined_MST,2020.2.10,Win32,60,,,,,,,,,,,,,,,,2,1,0.8108,0,99,99,99,1,2,NEW,NEW,F,,,,,,,,
,,,,,,,,,,,,,,5bb8b36656161d0001002ee4,2021-06-17_20h31.51.499,Combined_MST,2020.2.10,Win32,60,,,,,,,,,,,,,,,,,,,,,,,,,,,,0,0,0,0,1,,,
,,,,,,,,,,,,,,5bb8b36656161d0001002ee4,2021-06-17_20h31.51.499,Combined_MST,2020.2.10,Win32,60,,,,,,,,,,,,,,,,,,,,,,,,,,,,,,,,,return,7.6496,
