Welcome0Continue.keys,Welcome0Continue.rt,SoundCheckBegin.keys,SoundCheckBegin.rt,SoundCheckEndKey.keys,SoundCheckEndKey.rt,HeadphoneContinueKey.keys,HeadphoneContinueKey.rt,CheckResp.keys,CheckResp.corr,CheckResp.rt,HeadphoneLoop.thisRepN,HeadphoneLoop.thisTrialN,HeadphoneLoop.thisN,HeadphoneLoop.thisIndex,HeadphoneLoop.ran,File,Correct,participant,date,expName,psychopyVersion,OS,frameRate,STUDY_ID,SESSION_ID,ContinueKey8.keys,ContinueKey8.rt,MSTWelcomeContKey.keys,MSTWelcomeContKey.rt,Condition,MSTTrainIntroKey.keys,MSTTrainIntroKey.rt,MSTTrainKeys.keys,MSTTrainKeys.corr,MSTTrainKeys.rt,MSTTrainLoop.thisRepN,MSTTrainLoop.thisTrialN,MSTTrainLoop.thisN,MSTTrainLoop.thisIndex,MSTTrainLoop.ran,SoundFile,Type,MSTTestBeginKey.keys,MSTTestBeginKey.rt,MST_resp.keys,MST_resp.corr,MST_resp.rt,MSTPlayLoop.thisRepN,MSTPlayLoop.thisTrialN,MSTPlayLoop.thisN,MSTPlayLoop.thisIndex,MSTPlayLoop.ran,WordCorrect,Correct_type,WordType,MSTLoop.thisRepN,MSTLoop.thisTrialN,MSTLoop.thisN,MSTLoop.thisIndex,MSTLoop.ran,EndAllKey.keys,EndAllKey.rt,FeedbackResp.text
space,3.8588,space,7.7401,space,14.7187,space,5.3807,1,1,0.2846,0,0,0,1,1,Headphone/t1_2.wav,1,57698d52688a5c00018d958d,2021-07-15_07h03.53.212,Agingstudy_mst,2020.2.10,Win32,60,60e99bd7bc9be7be49ca9171,60efcfaceb008a41ca799eae,,,,,,,,,,,,,,,,,,,,,,,,,,,,,,,,,,,,,,
,,,,,,,,1,1,0.9887,0,1,1,0,1,Headphone/t1_1.wav,1,57698d52688a5c00018d958d,2021-07-15_07h03.53.212,Agingstudy_mst,2020.2.10,Win32,60,60e99bd7bc9be7be49ca9171,60efcfaceb008a41ca799eae,,,,,,,,,,,,,,,,,,,,,,,,,,,,,,,,,,,,,,
,,,,,,,,2,1,0.0609,0,2,2,3,1,Headphone/t2_2.wav,2,57698d52688a5c00018d958d,2021-07-15_07h03.53.212,Agingstudy_mst,2020.2.10,Win32,60,60e99bd7bc9be7be49ca9171,60efcfaceb008a41ca799eae,,,,,,,,,,,,,,,,,,,,,,,,,,,,,,,,,,,,,,
,,,,,,,,3,1,2.888,0,3,3,5,1,Headphone/t3_2.wav,3,57698d52688a5c00018d958d,2021-07-15_07h03.53.212,Agingstudy_mst,2020.2.10,Win32,60,60e99bd7bc9be7be49ca9171,60efcfaceb008a41ca799eae,,,,,,,,,,,,,,,,,,,,,,,,,,,,,,,,,,,,,,
,,,,,,,,3,1,0.3847,0,4,4,4,1,Headphone/t3_1.wav,3,57698d52688a5c00018d958d,2021-07-15_07h03.53.212,Agingstudy_mst,2020.2.10,Win32,60,60e99bd7bc9be7be49ca9171,60efcfaceb008a41ca799eae,,,,,,,,,,,,,,,,,,,,,,,,,,,,,,,,,,,,,,
,,,,,,,,2,1,0.4843,0,5,5,2,1,Headphone/t2_1.wav,2,57698d52688a5c00018d958d,2021-07-15_07h03.53.212,Agingstudy_mst,2020.2.10,Win32,60,60e99bd7bc9be7be49ca9171,60efcfaceb008a41ca799eae,,,,,,,,,,,,,,,,,,,,,,,,,,,,,,,,,,,,,,
,,,,,,,,,,,,,,,,,2,57698d52688a5c00018d958d,2021-07-15_07h03.53.212,Agingstudy_mst,2020.2.10,Win32,60,60e99bd7bc9be7be49ca9171,60efcfaceb008a41ca799eae,space,8.6797,space,2.3781,1,space,3.0408,2,1,4.2513,0,0,0,0,1,Training/FO_YI_LAY.wav,NEW,,,,,,,,,,,,,,,,,,,,,
,,,,,,,,,,,,,,,,,1,57698d52688a5c00018d958d,2021-07-15_07h03.53.212,Agingstudy_mst,2020.2.10,Win32,60,60e99bd7bc9be7be49ca9171,60efcfaceb008a41ca799eae,,,,,,,,2,0,1.9619,0,1,1,1,1,Training/FO_YI_LAY.wav,OLD,,,,,,,,,,,,,,,,,,,,,
,,,,,,,,,,,,,,,,,2,57698d52688a5c00018d958d,2021-07-15_07h03.53.212,Agingstudy_mst,2020.2.10,Win32,60,60e99bd7bc9be7be49ca9171,60efcfaceb008a41ca799eae,,,,,,,,2,1,3.6492,0,2,2,2,1,Training/YO_BU_JAY.wav,NEW,,,,,,,,,,,,,,,,,,,,,
,,,,,,,,,,,,,,,,,2,57698d52688a5c00018d958d,2021-07-15_07h03.53.212,Agingstudy_mst,2020.2.10,Win32,60,60e99bd7bc9be7be49ca9171,60efcfaceb008a41ca799eae,,,,,,,,2,1,1.339,0,3,3,3,1,Training/JAY_YO_BU.wav,SIMILAR,,,,,,,,,,,,,,,,,,,,,
,,,,,,,,,,,,,,,,,1,57698d52688a5c00018d958d,2021-07-15_07h03.53.212,Agingstudy_mst,2020.2.10,Win32,60,60e99bd7bc9be7be49ca9171,60efcfaceb008a41ca799eae,,,,,,,,2,0,1.2506,0,4,4,4,1,Training/FO_YI_LAY.wav,OLD,,,,,,,,,,,,,,,,,,,,,
,,,,,,,,,,,,,,,,TestWords/HO_NAY_VA.wav,,57698d52688a5c00018d958d,2021-07-15_07h03.53.212,Agingstudy_mst,2020.2.10,Win32,60,60e99bd7bc9be7be49ca9171,60efcfaceb008a41ca799eae,,,,,E,,,,,,,,,,,,,space,3.7976,2,1,1.2188,0,0,0,0,1,2,NEW,NEW,,,,,,,,
,,,,,,,,,,,,,,,,TestWords/LU_HAI_BO.wav,,57698d52688a5c00018d958d,2021-07-15_07h03.53.212,Agingstudy_mst,2020.2.10,Win32,60,60e99bd7bc9be7be49ca9171,60efcfaceb008a41ca799eae,,,,,E,,,,,,,,,,,,,,,2,1,1.3974,0,1,1,1,1,2,NEW,NEW,,,,,,,,
,,,,,,,,,,,,,,,,TestWords/GA_MU_ZI.wav,,57698d52688a5c00018d958d,2021-07-15_07h03.53.212,Agingstudy_mst,2020.2.10,Win32,60,60e99bd7bc9be7be49ca9171,60efcfaceb008a41ca799eae,,,,,E,,,,,,,,,,,,,,,2,1,0.6801,0,2,2,2,1,2,NEW,NEW,,,,,,,,
,,,,,,,,,,,,,,,,TestWords/BA_KAY_LI.wav,,57698d52688a5c00018d958d,2021-07-15_07h03.53.212,Agingstudy_mst,2020.2.10,Win32,60,60e99bd7bc9be7be49ca9171,60efcfaceb008a41ca799eae,,,,,E,,,,,,,,,,,,,,,1,0,1.1167,0,3,3,3,1,2,NEW,NEW,,,,,,,,
,,,,,,,,,,,,,,,,TestWords/DA_CHU_VAI.wav,,57698d52688a5c00018d958d,2021-07-15_07h03.53.212,Agingstudy_mst,2020.2.10,Win32,60,60e99bd7bc9be7be49ca9171,60efcfaceb008a41ca799eae,,,,,E,,,,,,,,,,,,,,,2,1,0.351,0,4,4,4,1,2,NEW,NEW,,,,,,,,
,,,,,,,,,,,,,,,,TestWords/CHU_LA_PAY.wav,,57698d52688a5c00018d958d,2021-07-15_07h03.53.212,Agingstudy_mst,2020.2.10,Win32,60,60e99bd7bc9be7be49ca9171,60efcfaceb008a41ca799eae,,,,,E,,,,,,,,,,,,,,,2,1,0.4137,0,5,5,5,1,2,NEW,NEW,,,,,,,,
,,,,,,,,,,,,,,,,TestWords/RAY_PA_TI.wav,,57698d52688a5c00018d958d,2021-07-15_07h03.53.212,Agingstudy_mst,2020.2.10,Win32,60,60e99bd7bc9be7be49ca9171,60efcfaceb008a41ca799eae,,,,,E,,,,,,,,,,,,,,,1,0,0.7617,0,6,6,6,1,2,NEW,NEW,,,,,,,,
,,,,,,,,,,,,,,,,TestWords/WAI_VU_NA.wav,,57698d52688a5c00018d958d,2021-07-15_07h03.53.212,Agingstudy_mst,2020.2.10,Win32,60,60e99bd7bc9be7be49ca9171,60efcfaceb008a41ca799eae,,,,,E,,,,,,,,,,,,,,,2,1,1.2131,0,7,7,7,1,2,NEW,NEW,,,,,,,,
,,,,,,,,,,,,,,,,TestWords/VAI_HO_LA.wav,,57698d52688a5c00018d958d,2021-07-15_07h03.53.212,Agingstudy_mst,2020.2.10,Win32,60,60e99bd7bc9be7be49ca9171,60efcfaceb008a41ca799eae,,,,,E,,,,,,,,,,,,,,,2,1,0.5019,0,8,8,8,1,2,NEW,NEW,,,,,,,,
,,,,,,,,,,,,,,,,TestWords/KAY_LI_BA.wav,,57698d52688a5c00018d958d,2021-07-15_07h03.53.212,Agingstudy_mst,2020.2.10,Win32,60,60e99bd7bc9be7be49ca9171,60efcfaceb008a41ca799eae,,,,,E,,,,,,,,,,,,,,,2,1,0.3016,0,9,9,9,1,2,NEW,SIMILAR,,,,,,,,
,,,,,,,,,,,,,,,,TestWords/GA_MU_ZI.wav,,57698d52688a5c00018d958d,2021-07-15_07h03.53.212,Agingstudy_mst,2020.2.10,Win32,60,60e99bd7bc9be7be49ca9171,60efcfaceb008a41ca799eae,,,,,E,,,,,,,,,,,,,,,1,1,0.6112,0,10,10,10,1,1,OLD,OLD,,,,,,,,
,,,,,,,,,,,,,,,,TestWords/LA_ZAY_CHAI.wav,,57698d52688a5c00018d958d,2021-07-15_07h03.53.212,Agingstudy_mst,2020.2.10,Win32,60,60e99bd7bc9be7be49ca9171,60efcfaceb008a41ca799eae,,,,,E,,,,,,,,,,,,,,,2,1,0.5359,0,11,11,11,1,2,NEW,NEW,,,,,,,,
,,,,,,,,,,,,,,,,TestWords/RAY_PA_TI.wav,,57698d52688a5c00018d958d,2021-07-15_07h03.53.212,Agingstudy_mst,2020.2.10,Win32,60,60e99bd7bc9be7be49ca9171,60efcfaceb008a41ca799eae,,,,,E,,,,,,,,,,,,,,,1,1,1.3506,0,12,12,12,1,1,OLD,OLD,,,,,,,,
,,,,,,,,,,,,,,,,TestWords/WAI_NA_VU.wav,,57698d52688a5c00018d958d,2021-07-15_07h03.53.212,Agingstudy_mst,2020.2.10,Win32,60,60e99bd7bc9be7be49ca9171,60efcfaceb008a41ca799eae,,,,,E,,,,,,,,,,,,,,,2,1,0.4005,0,13,13,13,1,2,NEW,SIMILAR,,,,,,,,
,,,,,,,,,,,,,,,,TestWords/DAI_RU_CHI.wav,,57698d52688a5c00018d958d,2021-07-15_07h03.53.212,Agingstudy_mst,2020.2.10,Win32,60,60e99bd7bc9be7be49ca9171,60efcfaceb008a41ca799eae,,,,,E,,,,,,,,,,,,,,,2,1,1.2059,0,14,14,14,1,2,NEW,NEW,,,,,,,,
,,,,,,,,,,,,,,,,TestWords/KAY_BA_LI.wav,,57698d52688a5c00018d958d,2021-07-15_07h03.53.212,Agingstudy_mst,2020.2.10,Win32,60,60e99bd7bc9be7be49ca9171,60efcfaceb008a41ca799eae,,,,,E,,,,,,,,,,,,,,,2,1,1.3676,0,15,15,15,1,2,NEW,SIMILAR,,,,,,,,
,,,,,,,,,,,,,,,,TestWords/GA_MU_ZI.wav,,57698d52688a5c00018d958d,2021-07-15_07h03.53.212,Agingstudy_mst,2020.2.10,Win32,60,60e99bd7bc9be7be49ca9171,60efcfaceb008a41ca799eae,,,,,E,,,,,,,,,,,,,,,1,1,0.4009,0,16,16,16,1,1,OLD,OLD,,,,,,,,
,,,,,,,,,,,,,,,,TestWords/VU_NA_WAI.wav,,57698d52688a5c00018d958d,2021-07-15_07h03.53.212,Agingstudy_mst,2020.2.10,Win32,60,60e99bd7bc9be7be49ca9171,60efcfaceb008a41ca799eae,,,,,E,,,,,,,,,,,,,,,2,1,0.8926,0,17,17,17,1,2,NEW,SIMILAR,,,,,,,,
,,,,,,,,,,,,,,,,TestWords/RAY_PA_TI.wav,,57698d52688a5c00018d958d,2021-07-15_07h03.53.212,Agingstudy_mst,2020.2.10,Win32,60,60e99bd7bc9be7be49ca9171,60efcfaceb008a41ca799eae,,,,,E,,,,,,,,,,,,,,,1,1,0.5711,0,18,18,18,1,1,OLD,OLD,,,,,,,,
,,,,,,,,,,,,,,,,TestWords/LI_BA_KAY.wav,,57698d52688a5c00018d958d,2021-07-15_07h03.53.212,Agingstudy_mst,2020.2.10,Win32,60,60e99bd7bc9be7be49ca9171,60efcfaceb008a41ca799eae,,,,,E,,,,,,,,,,,,,,,2,1,0.8191,0,19,19,19,1,2,NEW,SIMILAR,,,,,,,,
,,,,,,,,,,,,,,,,TestWords/DAY_MO_PU.wav,,57698d52688a5c00018d958d,2021-07-15_07h03.53.212,Agingstudy_mst,2020.2.10,Win32,60,60e99bd7bc9be7be49ca9171,60efcfaceb008a41ca799eae,,,,,E,,,,,,,,,,,,,,,2,1,1.286,0,20,20,20,1,2,NEW,NEW,,,,,,,,
,,,,,,,,,,,,,,,,TestWords/DAI_RU_CHI.wav,,57698d52688a5c00018d958d,2021-07-15_07h03.53.212,Agingstudy_mst,2020.2.10,Win32,60,60e99bd7bc9be7be49ca9171,60efcfaceb008a41ca799eae,,,,,E,,,,,,,,,,,,,,,2,0,1.4611,0,21,21,21,1,1,OLD,OLD,,,,,,,,
,,,,,,,,,,,,,,,,TestWords/NU_CHAY_SO.wav,,57698d52688a5c00018d958d,2021-07-15_07h03.53.212,Agingstudy_mst,2020.2.10,Win32,60,60e99bd7bc9be7be49ca9171,60efcfaceb008a41ca799eae,,,,,E,,,,,,,,,,,,,,,2,1,0.7331,0,22,22,22,1,2,NEW,NEW,,,,,,,,
,,,,,,,,,,,,,,,,TestWords/VU_WAI_NA.wav,,57698d52688a5c00018d958d,2021-07-15_07h03.53.212,Agingstudy_mst,2020.2.10,Win32,60,60e99bd7bc9be7be49ca9171,60efcfaceb008a41ca799eae,,,,,E,,,,,,,,,,,,,,,2,1,0.635,0,23,23,23,1,2,NEW,SIMILAR,,,,,,,,
,,,,,,,,,,,,,,,,TestWords/GA_MU_ZI.wav,,57698d52688a5c00018d958d,2021-07-15_07h03.53.212,Agingstudy_mst,2020.2.10,Win32,60,60e99bd7bc9be7be49ca9171,60efcfaceb008a41ca799eae,,,,,E,,,,,,,,,,,,,,,1,1,0.435,0,24,24,24,1,1,OLD,OLD,,,,,,,,
,,,,,,,,,,,,,,,,TestWords/RAY_PA_TI.wav,,57698d52688a5c00018d958d,2021-07-15_07h03.53.212,Agingstudy_mst,2020.2.10,Win32,60,60e99bd7bc9be7be49ca9171,60efcfaceb008a41ca799eae,,,,,E,,,,,,,,,,,,,,,1,1,0.5725,0,25,25,25,1,1,OLD,OLD,,,,,,,,
,,,,,,,,,,,,,,,,TestWords/KAI_LAY_TA.wav,,57698d52688a5c00018d958d,2021-07-15_07h03.53.212,Agingstudy_mst,2020.2.10,Win32,60,60e99bd7bc9be7be49ca9171,60efcfaceb008a41ca799eae,,,,,E,,,,,,,,,,,,,,,2,1,0.5048,0,26,26,26,1,2,NEW,NEW,,,,,,,,
,,,,,,,,,,,,,,,,TestWords/TAI_SA_GI.wav,,57698d52688a5c00018d958d,2021-07-15_07h03.53.212,Agingstudy_mst,2020.2.10,Win32,60,60e99bd7bc9be7be49ca9171,60efcfaceb008a41ca799eae,,,,,E,,,,,,,,,,,,,,,2,1,1.6997,0,27,27,27,1,2,NEW,NEW,,,,,,,,
,,,,,,,,,,,,,,,,TestWords/BA_LI_KAY.wav,,57698d52688a5c00018d958d,2021-07-15_07h03.53.212,Agingstudy_mst,2020.2.10,Win32,60,60e99bd7bc9be7be49ca9171,60efcfaceb008a41ca799eae,,,,,E,,,,,,,,,,,,,,,2,1,0.7436,0,28,28,28,1,2,NEW,SIMILAR,,,,,,,,
,,,,,,,,,,,,,,,,TestWords/KO_SU_FAI.wav,,57698d52688a5c00018d958d,2021-07-15_07h03.53.212,Agingstudy_mst,2020.2.10,Win32,60,60e99bd7bc9be7be49ca9171,60efcfaceb008a41ca799eae,,,,,E,,,,,,,,,,,,,,,2,1,0.1619,0,29,29,29,1,2,NEW,NEW,,,,,,,,
,,,,,,,,,,,,,,,,TestWords/MO_DAY_PU.wav,,57698d52688a5c00018d958d,2021-07-15_07h03.53.212,Agingstudy_mst,2020.2.10,Win32,60,60e99bd7bc9be7be49ca9171,60efcfaceb008a41ca799eae,,,,,E,,,,,,,,,,,,,,,2,1,1.1955,0,30,30,30,1,2,NEW,SIMILAR,,,,,,,,
,,,,,,,,,,,,,,,,TestWords/DAI_RU_CHI.wav,,57698d52688a5c00018d958d,2021-07-15_07h03.53.212,Agingstudy_mst,2020.2.10,Win32,60,60e99bd7bc9be7be49ca9171,60efcfaceb008a41ca799eae,,,,,E,,,,,,,,,,,,,,,1,1,0.384,0,31,31,31,1,1,OLD,OLD,,,,,,,,
,,,,,,,,,,,,,,,,TestWords/NA_VU_WAI.wav,,57698d52688a5c00018d958d,2021-07-15_07h03.53.212,Agingstudy_mst,2020.2.10,Win32,60,60e99bd7bc9be7be49ca9171,60efcfaceb008a41ca799eae,,,,,E,,,,,,,,,,,,,,,2,1,0.7161,0,32,32,32,1,2,NEW,SIMILAR,,,,,,,,
,,,,,,,,,,,,,,,,TestWords/KAI_LAY_TA.wav,,57698d52688a5c00018d958d,2021-07-15_07h03.53.212,Agingstudy_mst,2020.2.10,Win32,60,60e99bd7bc9be7be49ca9171,60efcfaceb008a41ca799eae,,,,,E,,,,,,,,,,,,,,,2,0,0.4456,0,33,33,33,1,1,OLD,OLD,,,,,,,,
,,,,,,,,,,,,,,,,TestWords/RAY_PA_TI.wav,,57698d52688a5c00018d958d,2021-07-15_07h03.53.212,Agingstudy_mst,2020.2.10,Win32,60,60e99bd7bc9be7be49ca9171,60efcfaceb008a41ca799eae,,,,,E,,,,,,,,,,,,,,,1,1,0.3145,0,34,34,34,1,1,OLD,OLD,,,,,,,,
,,,,,,,,,,,,,,,,TestWords/GA_MU_ZI.wav,,57698d52688a5c00018d958d,2021-07-15_07h03.53.212,Agingstudy_mst,2020.2.10,Win32,60,60e99bd7bc9be7be49ca9171,60efcfaceb008a41ca799eae,,,,,E,,,,,,,,,,,,,,,1,1,0.5361,0,35,35,35,1,1,OLD,OLD,,,,,,,,
,,,,,,,,,,,,,,,,TestWords/GI_SA_TAI.wav,,57698d52688a5c00018d958d,2021-07-15_07h03.53.212,Agingstudy_mst,2020.2.10,Win32,60,60e99bd7bc9be7be49ca9171,60efcfaceb008a41ca799eae,,,,,E,,,,,,,,,,,,,,,2,1,0.464,0,36,36,36,1,2,NEW,SIMILAR,,,,,,,,
,,,,,,,,,,,,,,,,TestWords/KO_SU_FAI.wav,,57698d52688a5c00018d958d,2021-07-15_07h03.53.212,Agingstudy_mst,2020.2.10,Win32,60,60e99bd7bc9be7be49ca9171,60efcfaceb008a41ca799eae,,,,,E,,,,,,,,,,,,,,,2,0,0.4007,0,37,37,37,1,1,OLD,OLD,,,,,,,,
,,,,,,,,,,,,,,,,TestWords/LI_KAY_BA.wav,,57698d52688a5c00018d958d,2021-07-15_07h03.53.212,Agingstudy_mst,2020.2.10,Win32,60,60e99bd7bc9be7be49ca9171,60efcfaceb008a41ca799eae,,,,,E,,,,,,,,,,,,,,,2,1,0.0482,0,38,38,38,1,2,NEW,SIMILAR,,,,,,,,
,,,,,,,,,,,,,,,,TestWords/NA_WAI_VU.wav,,57698d52688a5c00018d958d,2021-07-15_07h03.53.212,Agingstudy_mst,2020.2.10,Win32,60,60e99bd7bc9be7be49ca9171,60efcfaceb008a41ca799eae,,,,,E,,,,,,,,,,,,,,,2,1,0.1838,0,39,39,39,1,2,NEW,SIMILAR,,,,,,,,
,,,,,,,,,,,,,,,,TestWords/KAI_LAY_TA.wav,,57698d52688a5c00018d958d,2021-07-15_07h03.53.212,Agingstudy_mst,2020.2.10,Win32,60,60e99bd7bc9be7be49ca9171,60efcfaceb008a41ca799eae,,,,,E,,,,,,,,,,,,,,,2,0,0.1653,0,40,40,40,1,1,OLD,OLD,,,,,,,,
,,,,,,,,,,,,,,,,TestWords/RAY_PA_TI.wav,,57698d52688a5c00018d958d,2021-07-15_07h03.53.212,Agingstudy_mst,2020.2.10,Win32,60,60e99bd7bc9be7be49ca9171,60efcfaceb008a41ca799eae,,,,,E,,,,,,,,,,,,,,,1,1,0.0814,0,41,41,41,1,1,OLD,OLD,,,,,,,,
,,,,,,,,,,,,,,,,TestWords/PU_DAY_MO.wav,,57698d52688a5c00018d958d,2021-07-15_07h03.53.212,Agingstudy_mst,2020.2.10,Win32,60,60e99bd7bc9be7be49ca9171,60efcfaceb008a41ca799eae,,,,,E,,,,,,,,,,,,,,,2,1,0.2636,0,42,42,42,1,2,NEW,SIMILAR,,,,,,,,
,,,,,,,,,,,,,,,,TestWords/GA_MU_ZI.wav,,57698d52688a5c00018d958d,2021-07-15_07h03.53.212,Agingstudy_mst,2020.2.10,Win32,60,60e99bd7bc9be7be49ca9171,60efcfaceb008a41ca799eae,,,,,E,,,,,,,,,,,,,,,1,1,0.4564,0,43,43,43,1,1,OLD,OLD,,,,,,,,
,,,,,,,,,,,,,,,,TestWords/DAI_RU_CHI.wav,,57698d52688a5c00018d958d,2021-07-15_07h03.53.212,Agingstudy_mst,2020.2.10,Win32,60,60e99bd7bc9be7be49ca9171,60efcfaceb008a41ca799eae,,,,,E,,,,,,,,,,,,,,,2,0,0.9982,0,44,44,44,1,1,OLD,OLD,,,,,,,,
,,,,,,,,,,,,,,,,TestWords/GI_TAI_SA.wav,,57698d52688a5c00018d958d,2021-07-15_07h03.53.212,Agingstudy_mst,2020.2.10,Win32,60,60e99bd7bc9be7be49ca9171,60efcfaceb008a41ca799eae,,,,,E,,,,,,,,,,,,,,,2,1,0.4488,0,45,45,45,1,2,NEW,SIMILAR,,,,,,,,
,,,,,,,,,,,,,,,,TestWords/KO_SU_FAI.wav,,57698d52688a5c00018d958d,2021-07-15_07h03.53.212,Agingstudy_mst,2020.2.10,Win32,60,60e99bd7bc9be7be49ca9171,60efcfaceb008a41ca799eae,,,,,E,,,,,,,,,,,,,,,2,0,0.5179,0,46,46,46,1,1,OLD,OLD,,,,,,,,
,,,,,,,,,,,,,,,,TestWords/WAI_RO_JU.wav,,57698d52688a5c00018d958d,2021-07-15_07h03.53.212,Agingstudy_mst,2020.2.10,Win32,60,60e99bd7bc9be7be49ca9171,60efcfaceb008a41ca799eae,,,,,E,,,,,,,,,,,,,,,2,1,0.4371,0,47,47,47,1,2,NEW,NEW,,,,,,,,
,,,,,,,,,,,,,,,,TestWords/KAI_LAY_TA.wav,,57698d52688a5c00018d958d,2021-07-15_07h03.53.212,Agingstudy_mst,2020.2.10,Win32,60,60e99bd7bc9be7be49ca9171,60efcfaceb008a41ca799eae,,,,,E,,,,,,,,,,,,,,,2,0,0.4464,0,48,48,48,1,1,OLD,OLD,,,,,,,,
,,,,,,,,,,,,,,,,TestWords/DAI_RU_CHI.wav,,57698d52688a5c00018d958d,2021-07-15_07h03.53.212,Agingstudy_mst,2020.2.10,Win32,60,60e99bd7bc9be7be49ca9171,60efcfaceb008a41ca799eae,,,,,E,,,,,,,,,,,,,,,1,1,0.2184,0,49,49,49,1,1,OLD,OLD,,,,,,,,
,,,,,,,,,,,,,,,,TestWords/RAY_PA_TI.wav,,57698d52688a5c00018d958d,2021-07-15_07h03.53.212,Agingstudy_mst,2020.2.10,Win32,60,60e99bd7bc9be7be49ca9171,60efcfaceb008a41ca799eae,,,,,E,,,,,,,,,,,,,,,1,1,0.4181,0,50,50,50,1,1,OLD,OLD,,,,,,,,
,,,,,,,,,,,,,,,,TestWords/SA_TAI_GI.wav,,57698d52688a5c00018d958d,2021-07-15_07h03.53.212,Agingstudy_mst,2020.2.10,Win32,60,60e99bd7bc9be7be49ca9171,60efcfaceb008a41ca799eae,,,,,E,,,,,,,,,,,,,,,2,1,0.5306,0,51,51,51,1,2,NEW,SIMILAR,,,,,,,,
,,,,,,,,,,,,,,,,TestWords/KO_SU_FAI.wav,,57698d52688a5c00018d958d,2021-07-15_07h03.53.212,Agingstudy_mst,2020.2.10,Win32,60,60e99bd7bc9be7be49ca9171,60efcfaceb008a41ca799eae,,,,,E,,,,,,,,,,,,,,,2,0,0.3689,0,52,52,52,1,1,OLD,OLD,,,,,,,,
,,,,,,,,,,,,,,,,TestWords/PU_MO_DAY.wav,,57698d52688a5c00018d958d,2021-07-15_07h03.53.212,Agingstudy_mst,2020.2.10,Win32,60,60e99bd7bc9be7be49ca9171,60efcfaceb008a41ca799eae,,,,,E,,,,,,,,,,,,,,,1,0,0.4923,0,53,53,53,1,2,NEW,SIMILAR,,,,,,,,
,,,,,,,,,,,,,,,,TestWords/GA_MU_ZI.wav,,57698d52688a5c00018d958d,2021-07-15_07h03.53.212,Agingstudy_mst,2020.2.10,Win32,60,60e99bd7bc9be7be49ca9171,60efcfaceb008a41ca799eae,,,,,E,,,,,,,,,,,,,,,1,1,0.1324,0,54,54,54,1,1,OLD,OLD,,,,,,,,
,,,,,,,,,,,,,,,,TestWords/KAI_LAY_TA.wav,,57698d52688a5c00018d958d,2021-07-15_07h03.53.212,Agingstudy_mst,2020.2.10,Win32,60,60e99bd7bc9be7be49ca9171,60efcfaceb008a41ca799eae,,,,,E,,,,,,,,,,,,,,,2,0,0.3299,0,55,55,55,1,1,OLD,OLD,,,,,,,,
,,,,,,,,,,,,,,,,TestWords/SA_GI_TAI.wav,,57698d52688a5c00018d958d,2021-07-15_07h03.53.212,Agingstudy_mst,2020.2.10,Win32,60,60e99bd7bc9be7be49ca9171,60efcfaceb008a41ca799eae,,,,,E,,,,,,,,,,,,,,,2,1,0.5837,0,56,56,56,1,2,NEW,SIMILAR,,,,,,,,
,,,,,,,,,,,,,,,,TestWords/RAY_PA_TI.wav,,57698d52688a5c00018d958d,2021-07-15_07h03.53.212,Agingstudy_mst,2020.2.10,Win32,60,60e99bd7bc9be7be49ca9171,60efcfaceb008a41ca799eae,,,,,E,,,,,,,,,,,,,,,1,1,0.1137,0,57,57,57,1,1,OLD,OLD,,,,,,,,
,,,,,,,,,,,,,,,,TestWords/DAI_RU_CHI.wav,,57698d52688a5c00018d958d,2021-07-15_07h03.53.212,Agingstudy_mst,2020.2.10,Win32,60,60e99bd7bc9be7be49ca9171,60efcfaceb008a41ca799eae,,,,,E,,,,,,,,,,,,,,,2,0,0.3518,0,58,58,58,1,1,OLD,OLD,,,,,,,,
,,,,,,,,,,,,,,,,TestWords/KO_SU_FAI.wav,,57698d52688a5c00018d958d,2021-07-15_07h03.53.212,Agingstudy_mst,2020.2.10,Win32,60,60e99bd7bc9be7be49ca9171,60efcfaceb008a41ca799eae,,,,,E,,,,,,,,,,,,,,,2,0,1.1961,0,59,59,59,1,1,OLD,OLD,,,,,,,,
,,,,,,,,,,,,,,,,TestWords/ZO_RAI_FU.wav,,57698d52688a5c00018d958d,2021-07-15_07h03.53.212,Agingstudy_mst,2020.2.10,Win32,60,60e99bd7bc9be7be49ca9171,60efcfaceb008a41ca799eae,,,,,E,,,,,,,,,,,,,,,2,1,0.3166,0,60,60,60,1,2,NEW,NEW,,,,,,,,
,,,,,,,,,,,,,,,,TestWords/KAI_LAY_TA.wav,,57698d52688a5c00018d958d,2021-07-15_07h03.53.212,Agingstudy_mst,2020.2.10,Win32,60,60e99bd7bc9be7be49ca9171,60efcfaceb008a41ca799eae,,,,,E,,,,,,,,,,,,,,,2,0,0.1674,0,61,61,61,1,1,OLD,OLD,,,,,,,,
,,,,,,,,,,,,,,,,TestWords/GA_MU_ZI.wav,,57698d52688a5c00018d958d,2021-07-15_07h03.53.212,Agingstudy_mst,2020.2.10,Win32,60,60e99bd7bc9be7be49ca9171,60efcfaceb008a41ca799eae,,,,,E,,,,,,,,,,,,,,,1,1,0.0372,0,62,62,62,1,1,OLD,OLD,,,,,,,,
,,,,,,,,,,,,,,,,TestWords/TAI_GI_SA.wav,,57698d52688a5c00018d958d,2021-07-15_07h03.53.212,Agingstudy_mst,2020.2.10,Win32,60,60e99bd7bc9be7be49ca9171,60efcfaceb008a41ca799eae,,,,,E,,,,,,,,,,,,,,,2,1,0.053,0,63,63,63,1,2,NEW,SIMILAR,,,,,,,,
,,,,,,,,,,,,,,,,TestWords/RAY_PA_TI.wav,,57698d52688a5c00018d958d,2021-07-15_07h03.53.212,Agingstudy_mst,2020.2.10,Win32,60,60e99bd7bc9be7be49ca9171,60efcfaceb008a41ca799eae,,,,,E,,,,,,,,,,,,,,,1,1,0.0516,0,64,64,64,1,1,OLD,OLD,,,,,,,,
,,,,,,,,,,,,,,,,TestWords/DAY_PU_MO.wav,,57698d52688a5c00018d958d,2021-07-15_07h03.53.212,Agingstudy_mst,2020.2.10,Win32,60,60e99bd7bc9be7be49ca9171,60efcfaceb008a41ca799eae,,,,,E,,,,,,,,,,,,,,,2,1,0.2833,0,65,65,65,1,2,NEW,SIMILAR,,,,,,,,
,,,,,,,,,,,,,,,,TestWords/KO_SU_FAI.wav,,57698d52688a5c00018d958d,2021-07-15_07h03.53.212,Agingstudy_mst,2020.2.10,Win32,60,60e99bd7bc9be7be49ca9171,60efcfaceb008a41ca799eae,,,,,E,,,,,,,,,,,,,,,2,0,0.2004,0,66,66,66,1,1,OLD,OLD,,,,,,,,
,,,,,,,,,,,,,,,,TestWords/DAI_RU_CHI.wav,,57698d52688a5c00018d958d,2021-07-15_07h03.53.212,Agingstudy_mst,2020.2.10,Win32,60,60e99bd7bc9be7be49ca9171,60efcfaceb008a41ca799eae,,,,,E,,,,,,,,,,,,,,,1,1,0.2844,0,67,67,67,1,1,OLD,OLD,,,,,,,,
,,,,,,,,,,,,,,,,TestWords/KAI_LAY_TA.wav,,57698d52688a5c00018d958d,2021-07-15_07h03.53.212,Agingstudy_mst,2020.2.10,Win32,60,60e99bd7bc9be7be49ca9171,60efcfaceb008a41ca799eae,,,,,E,,,,,,,,,,,,,,,2,0,0.4201,0,68,68,68,1,1,OLD,OLD,,,,,,,,
,,,,,,,,,,,,,,,,TestWords/SI_VAI_CHU.wav,,57698d52688a5c00018d958d,2021-07-15_07h03.53.212,Agingstudy_mst,2020.2.10,Win32,60,60e99bd7bc9be7be49ca9171,60efcfaceb008a41ca799eae,,,,,E,,,,,,,,,,,,,,,2,1,0.8645,0,69,69,69,1,2,NEW,NEW,,,,,,,,
,,,,,,,,,,,,,,,,TestWords/GA_MU_ZI.wav,,57698d52688a5c00018d958d,2021-07-15_07h03.53.212,Agingstudy_mst,2020.2.10,Win32,60,60e99bd7bc9be7be49ca9171,60efcfaceb008a41ca799eae,,,,,E,,,,,,,,,,,,,,,1,1,0.1865,0,70,70,70,1,1,OLD,OLD,,,,,,,,
,,,,,,,,,,,,,,,,TestWords/KO_SU_FAI.wav,,57698d52688a5c00018d958d,2021-07-15_07h03.53.212,Agingstudy_mst,2020.2.10,Win32,60,60e99bd7bc9be7be49ca9171,60efcfaceb008a41ca799eae,,,,,E,,,,,,,,,,,,,,,2,0,0.4897,0,71,71,71,1,1,OLD,OLD,,,,,,,,
,,,,,,,,,,,,,,,,TestWords/RAI_FU_ZO.wav,,57698d52688a5c00018d958d,2021-07-15_07h03.53.212,Agingstudy_mst,2020.2.10,Win32,60,60e99bd7bc9be7be49ca9171,60efcfaceb008a41ca799eae,,,,,E,,,,,,,,,,,,,,,2,1,0.3189,0,72,72,72,1,2,NEW,SIMILAR,,,,,,,,
,,,,,,,,,,,,,,,,TestWords/KAI_LAY_TA.wav,,57698d52688a5c00018d958d,2021-07-15_07h03.53.212,Agingstudy_mst,2020.2.10,Win32,60,60e99bd7bc9be7be49ca9171,60efcfaceb008a41ca799eae,,,,,E,,,,,,,,,,,,,,,2,0,0.1347,0,73,73,73,1,1,OLD,OLD,,,,,,,,
,,,,,,,,,,,,,,,,TestWords/RAY_PA_TI.wav,,57698d52688a5c00018d958d,2021-07-15_07h03.53.212,Agingstudy_mst,2020.2.10,Win32,60,60e99bd7bc9be7be49ca9171,60efcfaceb008a41ca799eae,,,,,E,,,,,,,,,,,,,,,1,1,0.098,0,74,74,74,1,1,OLD,OLD,,,,,,,,
,,,,,,,,,,,,,,,,TestWords/DAI_RU_CHI.wav,,57698d52688a5c00018d958d,2021-07-15_07h03.53.212,Agingstudy_mst,2020.2.10,Win32,60,60e99bd7bc9be7be49ca9171,60efcfaceb008a41ca799eae,,,,,E,,,,,,,,,,,,,,,2,0,0.2517,0,75,75,75,1,1,OLD,OLD,,,,,,,,
,,,,,,,,,,,,,,,,TestWords/MO_PU_DAY.wav,,57698d52688a5c00018d958d,2021-07-15_07h03.53.212,Agingstudy_mst,2020.2.10,Win32,60,60e99bd7bc9be7be49ca9171,60efcfaceb008a41ca799eae,,,,,E,,,,,,,,,,,,,,,2,1,0.6285,0,76,76,76,1,2,NEW,SIMILAR,,,,,,,,
,,,,,,,,,,,,,,,,TestWords/GA_MU_ZI.wav,,57698d52688a5c00018d958d,2021-07-15_07h03.53.212,Agingstudy_mst,2020.2.10,Win32,60,60e99bd7bc9be7be49ca9171,60efcfaceb008a41ca799eae,,,,,E,,,,,,,,,,,,,,,1,1,0.051,0,77,77,77,1,1,OLD,OLD,,,,,,,,
,,,,,,,,,,,,,,,,TestWords/KO_SU_FAI.wav,,57698d52688a5c00018d958d,2021-07-15_07h03.53.212,Agingstudy_mst,2020.2.10,Win32,60,60e99bd7bc9be7be49ca9171,60efcfaceb008a41ca799eae,,,,,E,,,,,,,,,,,,,,,2,0,0.147,0,78,78,78,1,1,OLD,OLD,,,,,,,,
,,,,,,,,,,,,,,,,TestWords/NO_WA_BAY.wav,,57698d52688a5c00018d958d,2021-07-15_07h03.53.212,Agingstudy_mst,2020.2.10,Win32,60,60e99bd7bc9be7be49ca9171,60efcfaceb008a41ca799eae,,,,,E,,,,,,,,,,,,,,,2,1,0.4206,0,79,79,79,1,2,NEW,NEW,,,,,,,,
,,,,,,,,,,,,,,,,TestWords/KAI_LAY_TA.wav,,57698d52688a5c00018d958d,2021-07-15_07h03.53.212,Agingstudy_mst,2020.2.10,Win32,60,60e99bd7bc9be7be49ca9171,60efcfaceb008a41ca799eae,,,,,E,,,,,,,,,,,,,,,2,0,0.3519,0,80,80,80,1,1,OLD,OLD,,,,,,,,
,,,,,,,,,,,,,,,,TestWords/RAY_PA_TI.wav,,57698d52688a5c00018d958d,2021-07-15_07h03.53.212,Agingstudy_mst,2020.2.10,Win32,60,60e99bd7bc9be7be49ca9171,60efcfaceb008a41ca799eae,,,,,E,,,,,,,,,,,,,,,1,1,0.01,0,81,81,81,1,1,OLD,OLD,,,,,,,,
,,,,,,,,,,,,,,,,TestWords/RAI_ZO_FU.wav,,57698d52688a5c00018d958d,2021-07-15_07h03.53.212,Agingstudy_mst,2020.2.10,Win32,60,60e99bd7bc9be7be49ca9171,60efcfaceb008a41ca799eae,,,,,E,,,,,,,,,,,,,,,2,1,0.3807,0,82,82,82,1,2,NEW,SIMILAR,,,,,,,,
,,,,,,,,,,,,,,,,TestWords/DAI_RU_CHI.wav,,57698d52688a5c00018d958d,2021-07-15_07h03.53.212,Agingstudy_mst,2020.2.10,Win32,60,60e99bd7bc9be7be49ca9171,60efcfaceb008a41ca799eae,,,,,E,,,,,,,,,,,,,,,2,0,1.0178,0,83,83,83,1,1,OLD,OLD,,,,,,,,
,,,,,,,,,,,,,,,,TestWords/HA_SI_JAI.wav,,57698d52688a5c00018d958d,2021-07-15_07h03.53.212,Agingstudy_mst,2020.2.10,Win32,60,60e99bd7bc9be7be49ca9171,60efcfaceb008a41ca799eae,,,,,E,,,,,,,,,,,,,,,2,1,1.5159,0,84,84,84,1,2,NEW,NEW,,,,,,,,
,,,,,,,,,,,,,,,,TestWords/KO_SU_FAI.wav,,57698d52688a5c00018d958d,2021-07-15_07h03.53.212,Agingstudy_mst,2020.2.10,Win32,60,60e99bd7bc9be7be49ca9171,60efcfaceb008a41ca799eae,,,,,E,,,,,,,,,,,,,,,2,0,0.5497,0,85,85,85,1,1,OLD,OLD,,,,,,,,
,,,,,,,,,,,,,,,,TestWords/KAI_LAY_TA.wav,,57698d52688a5c00018d958d,2021-07-15_07h03.53.212,Agingstudy_mst,2020.2.10,Win32,60,60e99bd7bc9be7be49ca9171,60efcfaceb008a41ca799eae,,,,,E,,,,,,,,,,,,,,,2,0,0.3717,0,86,86,86,1,1,OLD,OLD,,,,,,,,
,,,,,,,,,,,,,,,,TestWords/GA_MU_ZI.wav,,57698d52688a5c00018d958d,2021-07-15_07h03.53.212,Agingstudy_mst,2020.2.10,Win32,60,60e99bd7bc9be7be49ca9171,60efcfaceb008a41ca799eae,,,,,E,,,,,,,,,,,,,,,1,1,0.1057,0,87,87,87,1,1,OLD,OLD,,,,,,,,
,,,,,,,,,,,,,,,,TestWords/FU_ZO_RAI.wav,,57698d52688a5c00018d958d,2021-07-15_07h03.53.212,Agingstudy_mst,2020.2.10,Win32,60,60e99bd7bc9be7be49ca9171,60efcfaceb008a41ca799eae,,,,,E,,,,,,,,,,,,,,,2,1,0.1999,0,88,88,88,1,2,NEW,SIMILAR,,,,,,,,
,,,,,,,,,,,,,,,,TestWords/KO_SU_FAI.wav,,57698d52688a5c00018d958d,2021-07-15_07h03.53.212,Agingstudy_mst,2020.2.10,Win32,60,60e99bd7bc9be7be49ca9171,60efcfaceb008a41ca799eae,,,,,E,,,,,,,,,,,,,,,1,1,0.9307,0,89,89,89,1,1,OLD,OLD,,,,,,,,
,,,,,,,,,,,,,,,,TestWords/KAI_LAY_TA.wav,,57698d52688a5c00018d958d,2021-07-15_07h03.53.212,Agingstudy_mst,2020.2.10,Win32,60,60e99bd7bc9be7be49ca9171,60efcfaceb008a41ca799eae,,,,,E,,,,,,,,,,,,,,,2,0,0.7134,0,90,90,90,1,1,OLD,OLD,,,,,,,,
,,,,,,,,,,,,,,,,TestWords/DAI_RU_CHI.wav,,57698d52688a5c00018d958d,2021-07-15_07h03.53.212,Agingstudy_mst,2020.2.10,Win32,60,60e99bd7bc9be7be49ca9171,60efcfaceb008a41ca799eae,,,,,E,,,,,,,,,,,,,,,1,1,0.5036,0,91,91,91,1,1,OLD,OLD,,,,,,,,
,,,,,,,,,,,,,,,,TestWords/HI_NAY_VA.wav,,57698d52688a5c00018d958d,2021-07-15_07h03.53.212,Agingstudy_mst,2020.2.10,Win32,60,60e99bd7bc9be7be49ca9171,60efcfaceb008a41ca799eae,,,,,E,,,,,,,,,,,,,,,2,1,0.3637,0,92,92,92,1,2,NEW,NEW,,,,,,,,
,,,,,,,,,,,,,,,,TestWords/GU_CHAI_PI.wav,,57698d52688a5c00018d958d,2021-07-15_07h03.53.212,Agingstudy_mst,2020.2.10,Win32,60,60e99bd7bc9be7be49ca9171,60efcfaceb008a41ca799eae,,,,,E,,,,,,,,,,,,,,,2,1,0.4472,0,93,93,93,1,2,NEW,NEW,,,,,,,,
,,,,,,,,,,,,,,,,TestWords/FU_RAI_ZO.wav,,57698d52688a5c00018d958d,2021-07-15_07h03.53.212,Agingstudy_mst,2020.2.10,Win32,60,60e99bd7bc9be7be49ca9171,60efcfaceb008a41ca799eae,,,,,E,,,,,,,,,,,,,,,2,1,1.0084,0,94,94,94,1,2,NEW,SIMILAR,,,,,,,,
,,,,,,,,,,,,,,,,TestWords/KO_SU_FAI.wav,,57698d52688a5c00018d958d,2021-07-15_07h03.53.212,Agingstudy_mst,2020.2.10,Win32,60,60e99bd7bc9be7be49ca9171,60efcfaceb008a41ca799eae,,,,,E,,,,,,,,,,,,,,,1,1,0.3037,0,95,95,95,1,1,OLD,OLD,,,,,,,,
,,,,,,,,,,,,,,,,TestWords/PAI_LU_WA.wav,,57698d52688a5c00018d958d,2021-07-15_07h03.53.212,Agingstudy_mst,2020.2.10,Win32,60,60e99bd7bc9be7be49ca9171,60efcfaceb008a41ca799eae,,,,,E,,,,,,,,,,,,,,,2,1,0.7504,0,96,96,96,1,2,NEW,NEW,,,,,,,,
,,,,,,,,,,,,,,,,TestWords/DAI_RU_CHI.wav,,57698d52688a5c00018d958d,2021-07-15_07h03.53.212,Agingstudy_mst,2020.2.10,Win32,60,60e99bd7bc9be7be49ca9171,60efcfaceb008a41ca799eae,,,,,E,,,,,,,,,,,,,,,1,1,0.2512,0,97,97,97,1,1,OLD,OLD,,,,,,,,
,,,,,,,,,,,,,,,,TestWords/FI_GU_CHA.wav,,57698d52688a5c00018d958d,2021-07-15_07h03.53.212,Agingstudy_mst,2020.2.10,Win32,60,60e99bd7bc9be7be49ca9171,60efcfaceb008a41ca799eae,,,,,E,,,,,,,,,,,,,,,2,1,0.3691,0,98,98,98,1,2,NEW,NEW,,,,,,,,
,,,,,,,,,,,,,,,,TestWords/ZO_FU_RAI.wav,,57698d52688a5c00018d958d,2021-07-15_07h03.53.212,Agingstudy_mst,2020.2.10,Win32,60,60e99bd7bc9be7be49ca9171,60efcfaceb008a41ca799eae,,,,,E,,,,,,,,,,,,,,,2,1,0.4441,0,99,99,99,1,2,NEW,SIMILAR,,,,,,,,
,,,,,,,,,,,,,,,,,,57698d52688a5c00018d958d,2021-07-15_07h03.53.212,Agingstudy_mst,2020.2.10,Win32,60,60e99bd7bc9be7be49ca9171,60efcfaceb008a41ca799eae,,,,,,,,,,,,,,,,,,,,,,,,,,,,,,,0,0,0,0,1,,,
,,,,,,,,,,,,,,,,,,57698d52688a5c00018d958d,2021-07-15_07h03.53.212,Agingstudy_mst,2020.2.10,Win32,60,60e99bd7bc9be7be49ca9171,60efcfaceb008a41ca799eae,,,,,,,,,,,,,,,,,,,,,,,,,,,,,,,,,,,,return,8.9112,
