Welcome0Continue.keys,Welcome0Continue.rt,SoundCheckBegin.keys,SoundCheckBegin.rt,SoundCheckEndKey.keys,SoundCheckEndKey.rt,HeadphoneContinueKey.keys,HeadphoneContinueKey.rt,CheckResp.keys,CheckResp.corr,CheckResp.rt,HeadphoneLoop.thisRepN,HeadphoneLoop.thisTrialN,HeadphoneLoop.thisN,HeadphoneLoop.thisIndex,HeadphoneLoop.ran,File,Correct,participant,date,expName,psychopyVersion,OS,frameRate,STUDY_ID,SESSION_ID,ContinueKey8.keys,ContinueKey8.rt,MSTWelcomeContKey.keys,MSTWelcomeContKey.rt,Condition,MSTTrainIntroKey.keys,MSTTrainIntroKey.rt,MSTTrainKeys.keys,MSTTrainKeys.corr,MSTTrainKeys.rt,MSTTrainLoop.thisRepN,MSTTrainLoop.thisTrialN,MSTTrainLoop.thisN,MSTTrainLoop.thisIndex,MSTTrainLoop.ran,SoundFile,Type,MSTTestBeginKey.keys,MSTTestBeginKey.rt,MST_resp.keys,MST_resp.corr,MST_resp.rt,MSTPlayLoop.thisRepN,MSTPlayLoop.thisTrialN,MSTPlayLoop.thisN,MSTPlayLoop.thisIndex,MSTPlayLoop.ran,WordCorrect,Correct_type,WordType,MSTLoop.thisRepN,MSTLoop.thisTrialN,MSTLoop.thisN,MSTLoop.thisIndex,MSTLoop.ran,EndAllKey.keys,EndAllKey.rt,FeedbackResp.text
space,4.1076,space,4.5675,space,4.1439,space,3.2874,3,0,3.729,0,0,0,0,1,Headphone/t1_1.wav,1,5b100cb0a3553300017541c8,2021-07-15_05h44.14.232,Agingstudy_mst,2020.2.10,Win32,60,60e99bd7bc9be7be49ca9171,60efbd0aed443d0c7ca94121,,,,,,,,,,,,,,,,,,,,,,,,,,,,,,,,,,,,,,
,,,,,,,,3,1,2.1852,0,1,1,4,1,Headphone/t3_1.wav,3,5b100cb0a3553300017541c8,2021-07-15_05h44.14.232,Agingstudy_mst,2020.2.10,Win32,60,60e99bd7bc9be7be49ca9171,60efbd0aed443d0c7ca94121,,,,,,,,,,,,,,,,,,,,,,,,,,,,,,,,,,,,,,
,,,,,,,,2,1,1.7555,0,2,2,2,1,Headphone/t2_1.wav,2,5b100cb0a3553300017541c8,2021-07-15_05h44.14.232,Agingstudy_mst,2020.2.10,Win32,60,60e99bd7bc9be7be49ca9171,60efbd0aed443d0c7ca94121,,,,,,,,,,,,,,,,,,,,,,,,,,,,,,,,,,,,,,
,,,,,,,,3,0,2.0683,0,3,3,1,1,Headphone/t1_2.wav,1,5b100cb0a3553300017541c8,2021-07-15_05h44.14.232,Agingstudy_mst,2020.2.10,Win32,60,60e99bd7bc9be7be49ca9171,60efbd0aed443d0c7ca94121,,,,,,,,,,,,,,,,,,,,,,,,,,,,,,,,,,,,,,
,,,,,,,,2,1,1.1923,0,4,4,3,1,Headphone/t2_2.wav,2,5b100cb0a3553300017541c8,2021-07-15_05h44.14.232,Agingstudy_mst,2020.2.10,Win32,60,60e99bd7bc9be7be49ca9171,60efbd0aed443d0c7ca94121,,,,,,,,,,,,,,,,,,,,,,,,,,,,,,,,,,,,,,
,,,,,,,,1,0,1.1602,0,5,5,5,1,Headphone/t3_2.wav,3,5b100cb0a3553300017541c8,2021-07-15_05h44.14.232,Agingstudy_mst,2020.2.10,Win32,60,60e99bd7bc9be7be49ca9171,60efbd0aed443d0c7ca94121,,,,,,,,,,,,,,,,,,,,,,,,,,,,,,,,,,,,,,
,,,,,,,,,,,,,,,,,2,5b100cb0a3553300017541c8,2021-07-15_05h44.14.232,Agingstudy_mst,2020.2.10,Win32,60,60e99bd7bc9be7be49ca9171,60efbd0aed443d0c7ca94121,space,26.5704,space,9.0329,1,space,2.8075,1,0,2.6104,0,0,0,0,1,Training/FO_YI_LAY.wav,NEW,,,,,,,,,,,,,,,,,,,,,
,,,,,,,,,,,,,,,,,1,5b100cb0a3553300017541c8,2021-07-15_05h44.14.232,Agingstudy_mst,2020.2.10,Win32,60,60e99bd7bc9be7be49ca9171,60efbd0aed443d0c7ca94121,,,,,,,,1,1,3.647,0,1,1,1,1,Training/FO_YI_LAY.wav,OLD,,,,,,,,,,,,,,,,,,,,,
,,,,,,,,,,,,,,,,,2,5b100cb0a3553300017541c8,2021-07-15_05h44.14.232,Agingstudy_mst,2020.2.10,Win32,60,60e99bd7bc9be7be49ca9171,60efbd0aed443d0c7ca94121,,,,,,,,2,1,2.6008,0,2,2,2,1,Training/YO_BU_JAY.wav,NEW,,,,,,,,,,,,,,,,,,,,,
,,,,,,,,,,,,,,,,,2,5b100cb0a3553300017541c8,2021-07-15_05h44.14.232,Agingstudy_mst,2020.2.10,Win32,60,60e99bd7bc9be7be49ca9171,60efbd0aed443d0c7ca94121,,,,,,,,2,1,1.7979,0,3,3,3,1,Training/JAY_YO_BU.wav,SIMILAR,,,,,,,,,,,,,,,,,,,,,
,,,,,,,,,,,,,,,,,1,5b100cb0a3553300017541c8,2021-07-15_05h44.14.232,Agingstudy_mst,2020.2.10,Win32,60,60e99bd7bc9be7be49ca9171,60efbd0aed443d0c7ca94121,,,,,,,,2,0,1.7483,0,4,4,4,1,Training/FO_YI_LAY.wav,OLD,,,,,,,,,,,,,,,,,,,,,
,,,,,,,,,,,,,,,,TestWords/HO_NAY_VA.wav,,5b100cb0a3553300017541c8,2021-07-15_05h44.14.232,Agingstudy_mst,2020.2.10,Win32,60,60e99bd7bc9be7be49ca9171,60efbd0aed443d0c7ca94121,,,,,E,,,,,,,,,,,,,space,2.8431,2,1,6.6159,0,0,0,0,1,2,NEW,NEW,,,,,,,,
,,,,,,,,,,,,,,,,TestWords/LU_HAI_BO.wav,,5b100cb0a3553300017541c8,2021-07-15_05h44.14.232,Agingstudy_mst,2020.2.10,Win32,60,60e99bd7bc9be7be49ca9171,60efbd0aed443d0c7ca94121,,,,,E,,,,,,,,,,,,,,,2,1,2.2051,0,1,1,1,1,2,NEW,NEW,,,,,,,,
,,,,,,,,,,,,,,,,TestWords/GA_MU_ZI.wav,,5b100cb0a3553300017541c8,2021-07-15_05h44.14.232,Agingstudy_mst,2020.2.10,Win32,60,60e99bd7bc9be7be49ca9171,60efbd0aed443d0c7ca94121,,,,,E,,,,,,,,,,,,,,,2,1,0.6503,0,2,2,2,1,2,NEW,NEW,,,,,,,,
,,,,,,,,,,,,,,,,TestWords/BA_KAY_LI.wav,,5b100cb0a3553300017541c8,2021-07-15_05h44.14.232,Agingstudy_mst,2020.2.10,Win32,60,60e99bd7bc9be7be49ca9171,60efbd0aed443d0c7ca94121,,,,,E,,,,,,,,,,,,,,,2,1,1.6009,0,3,3,3,1,2,NEW,NEW,,,,,,,,
,,,,,,,,,,,,,,,,TestWords/DA_CHU_VAI.wav,,5b100cb0a3553300017541c8,2021-07-15_05h44.14.232,Agingstudy_mst,2020.2.10,Win32,60,60e99bd7bc9be7be49ca9171,60efbd0aed443d0c7ca94121,,,,,E,,,,,,,,,,,,,,,2,1,0.5922,0,4,4,4,1,2,NEW,NEW,,,,,,,,
,,,,,,,,,,,,,,,,TestWords/CHU_LA_PAY.wav,,5b100cb0a3553300017541c8,2021-07-15_05h44.14.232,Agingstudy_mst,2020.2.10,Win32,60,60e99bd7bc9be7be49ca9171,60efbd0aed443d0c7ca94121,,,,,E,,,,,,,,,,,,,,,1,0,2.0124,0,5,5,5,1,2,NEW,NEW,,,,,,,,
,,,,,,,,,,,,,,,,TestWords/RAY_PA_TI.wav,,5b100cb0a3553300017541c8,2021-07-15_05h44.14.232,Agingstudy_mst,2020.2.10,Win32,60,60e99bd7bc9be7be49ca9171,60efbd0aed443d0c7ca94121,,,,,E,,,,,,,,,,,,,,,2,1,1.422,0,6,6,6,1,2,NEW,NEW,,,,,,,,
,,,,,,,,,,,,,,,,TestWords/WAI_VU_NA.wav,,5b100cb0a3553300017541c8,2021-07-15_05h44.14.232,Agingstudy_mst,2020.2.10,Win32,60,60e99bd7bc9be7be49ca9171,60efbd0aed443d0c7ca94121,,,,,E,,,,,,,,,,,,,,,2,1,0.7512,0,7,7,7,1,2,NEW,NEW,,,,,,,,
,,,,,,,,,,,,,,,,TestWords/VAI_HO_LA.wav,,5b100cb0a3553300017541c8,2021-07-15_05h44.14.232,Agingstudy_mst,2020.2.10,Win32,60,60e99bd7bc9be7be49ca9171,60efbd0aed443d0c7ca94121,,,,,E,,,,,,,,,,,,,,,2,1,1.6515,0,8,8,8,1,2,NEW,NEW,,,,,,,,
,,,,,,,,,,,,,,,,TestWords/KAY_LI_BA.wav,,5b100cb0a3553300017541c8,2021-07-15_05h44.14.232,Agingstudy_mst,2020.2.10,Win32,60,60e99bd7bc9be7be49ca9171,60efbd0aed443d0c7ca94121,,,,,E,,,,,,,,,,,,,,,2,1,1.0837,0,9,9,9,1,2,NEW,SIMILAR,,,,,,,,
,,,,,,,,,,,,,,,,TestWords/GA_MU_ZI.wav,,5b100cb0a3553300017541c8,2021-07-15_05h44.14.232,Agingstudy_mst,2020.2.10,Win32,60,60e99bd7bc9be7be49ca9171,60efbd0aed443d0c7ca94121,,,,,E,,,,,,,,,,,,,,,1,1,1.3602,0,10,10,10,1,1,OLD,OLD,,,,,,,,
,,,,,,,,,,,,,,,,TestWords/LA_ZAY_CHAI.wav,,5b100cb0a3553300017541c8,2021-07-15_05h44.14.232,Agingstudy_mst,2020.2.10,Win32,60,60e99bd7bc9be7be49ca9171,60efbd0aed443d0c7ca94121,,,,,E,,,,,,,,,,,,,,,1,0,1.4909,0,11,11,11,1,2,NEW,NEW,,,,,,,,
,,,,,,,,,,,,,,,,TestWords/RAY_PA_TI.wav,,5b100cb0a3553300017541c8,2021-07-15_05h44.14.232,Agingstudy_mst,2020.2.10,Win32,60,60e99bd7bc9be7be49ca9171,60efbd0aed443d0c7ca94121,,,,,E,,,,,,,,,,,,,,,1,1,0.7789,0,12,12,12,1,1,OLD,OLD,,,,,,,,
,,,,,,,,,,,,,,,,TestWords/WAI_NA_VU.wav,,5b100cb0a3553300017541c8,2021-07-15_05h44.14.232,Agingstudy_mst,2020.2.10,Win32,60,60e99bd7bc9be7be49ca9171,60efbd0aed443d0c7ca94121,,,,,E,,,,,,,,,,,,,,,1,0,1.1007,0,13,13,13,1,2,NEW,SIMILAR,,,,,,,,
,,,,,,,,,,,,,,,,TestWords/DAI_RU_CHI.wav,,5b100cb0a3553300017541c8,2021-07-15_05h44.14.232,Agingstudy_mst,2020.2.10,Win32,60,60e99bd7bc9be7be49ca9171,60efbd0aed443d0c7ca94121,,,,,E,,,,,,,,,,,,,,,2,1,1.3704,0,14,14,14,1,2,NEW,NEW,,,,,,,,
,,,,,,,,,,,,,,,,TestWords/KAY_BA_LI.wav,,5b100cb0a3553300017541c8,2021-07-15_05h44.14.232,Agingstudy_mst,2020.2.10,Win32,60,60e99bd7bc9be7be49ca9171,60efbd0aed443d0c7ca94121,,,,,E,,,,,,,,,,,,,,,1,0,0.9577,0,15,15,15,1,2,NEW,SIMILAR,,,,,,,,
,,,,,,,,,,,,,,,,TestWords/GA_MU_ZI.wav,,5b100cb0a3553300017541c8,2021-07-15_05h44.14.232,Agingstudy_mst,2020.2.10,Win32,60,60e99bd7bc9be7be49ca9171,60efbd0aed443d0c7ca94121,,,,,E,,,,,,,,,,,,,,,2,0,3.0681,0,16,16,16,1,1,OLD,OLD,,,,,,,,
,,,,,,,,,,,,,,,,TestWords/VU_NA_WAI.wav,,5b100cb0a3553300017541c8,2021-07-15_05h44.14.232,Agingstudy_mst,2020.2.10,Win32,60,60e99bd7bc9be7be49ca9171,60efbd0aed443d0c7ca94121,,,,,E,,,,,,,,,,,,,,,2,1,0.9365,0,17,17,17,1,2,NEW,SIMILAR,,,,,,,,
,,,,,,,,,,,,,,,,TestWords/RAY_PA_TI.wav,,5b100cb0a3553300017541c8,2021-07-15_05h44.14.232,Agingstudy_mst,2020.2.10,Win32,60,60e99bd7bc9be7be49ca9171,60efbd0aed443d0c7ca94121,,,,,E,,,,,,,,,,,,,,,1,1,0.7678,0,18,18,18,1,1,OLD,OLD,,,,,,,,
,,,,,,,,,,,,,,,,TestWords/LI_BA_KAY.wav,,5b100cb0a3553300017541c8,2021-07-15_05h44.14.232,Agingstudy_mst,2020.2.10,Win32,60,60e99bd7bc9be7be49ca9171,60efbd0aed443d0c7ca94121,,,,,E,,,,,,,,,,,,,,,1,0,1.0556,0,19,19,19,1,2,NEW,SIMILAR,,,,,,,,
,,,,,,,,,,,,,,,,TestWords/DAY_MO_PU.wav,,5b100cb0a3553300017541c8,2021-07-15_05h44.14.232,Agingstudy_mst,2020.2.10,Win32,60,60e99bd7bc9be7be49ca9171,60efbd0aed443d0c7ca94121,,,,,E,,,,,,,,,,,,,,,1,0,1.7684,0,20,20,20,1,2,NEW,NEW,,,,,,,,
,,,,,,,,,,,,,,,,TestWords/DAI_RU_CHI.wav,,5b100cb0a3553300017541c8,2021-07-15_05h44.14.232,Agingstudy_mst,2020.2.10,Win32,60,60e99bd7bc9be7be49ca9171,60efbd0aed443d0c7ca94121,,,,,E,,,,,,,,,,,,,,,1,1,1.155,0,21,21,21,1,1,OLD,OLD,,,,,,,,
,,,,,,,,,,,,,,,,TestWords/NU_CHAY_SO.wav,,5b100cb0a3553300017541c8,2021-07-15_05h44.14.232,Agingstudy_mst,2020.2.10,Win32,60,60e99bd7bc9be7be49ca9171,60efbd0aed443d0c7ca94121,,,,,E,,,,,,,,,,,,,,,2,1,0.5745,0,22,22,22,1,2,NEW,NEW,,,,,,,,
,,,,,,,,,,,,,,,,TestWords/VU_WAI_NA.wav,,5b100cb0a3553300017541c8,2021-07-15_05h44.14.232,Agingstudy_mst,2020.2.10,Win32,60,60e99bd7bc9be7be49ca9171,60efbd0aed443d0c7ca94121,,,,,E,,,,,,,,,,,,,,,1,0,1.7061,0,23,23,23,1,2,NEW,SIMILAR,,,,,,,,
,,,,,,,,,,,,,,,,TestWords/GA_MU_ZI.wav,,5b100cb0a3553300017541c8,2021-07-15_05h44.14.232,Agingstudy_mst,2020.2.10,Win32,60,60e99bd7bc9be7be49ca9171,60efbd0aed443d0c7ca94121,,,,,E,,,,,,,,,,,,,,,1,1,1.5595,0,24,24,24,1,1,OLD,OLD,,,,,,,,
,,,,,,,,,,,,,,,,TestWords/RAY_PA_TI.wav,,5b100cb0a3553300017541c8,2021-07-15_05h44.14.232,Agingstudy_mst,2020.2.10,Win32,60,60e99bd7bc9be7be49ca9171,60efbd0aed443d0c7ca94121,,,,,E,,,,,,,,,,,,,,,1,1,0.6346,0,25,25,25,1,1,OLD,OLD,,,,,,,,
,,,,,,,,,,,,,,,,TestWords/KAI_LAY_TA.wav,,5b100cb0a3553300017541c8,2021-07-15_05h44.14.232,Agingstudy_mst,2020.2.10,Win32,60,60e99bd7bc9be7be49ca9171,60efbd0aed443d0c7ca94121,,,,,E,,,,,,,,,,,,,,,2,1,0.7078,0,26,26,26,1,2,NEW,NEW,,,,,,,,
,,,,,,,,,,,,,,,,TestWords/TAI_SA_GI.wav,,5b100cb0a3553300017541c8,2021-07-15_05h44.14.232,Agingstudy_mst,2020.2.10,Win32,60,60e99bd7bc9be7be49ca9171,60efbd0aed443d0c7ca94121,,,,,E,,,,,,,,,,,,,,,2,1,0.5068,0,27,27,27,1,2,NEW,NEW,,,,,,,,
,,,,,,,,,,,,,,,,TestWords/BA_LI_KAY.wav,,5b100cb0a3553300017541c8,2021-07-15_05h44.14.232,Agingstudy_mst,2020.2.10,Win32,60,60e99bd7bc9be7be49ca9171,60efbd0aed443d0c7ca94121,,,,,E,,,,,,,,,,,,,,,2,1,0.4512,0,28,28,28,1,2,NEW,SIMILAR,,,,,,,,
,,,,,,,,,,,,,,,,TestWords/KO_SU_FAI.wav,,5b100cb0a3553300017541c8,2021-07-15_05h44.14.232,Agingstudy_mst,2020.2.10,Win32,60,60e99bd7bc9be7be49ca9171,60efbd0aed443d0c7ca94121,,,,,E,,,,,,,,,,,,,,,2,1,0.5934,0,29,29,29,1,2,NEW,NEW,,,,,,,,
,,,,,,,,,,,,,,,,TestWords/MO_DAY_PU.wav,,5b100cb0a3553300017541c8,2021-07-15_05h44.14.232,Agingstudy_mst,2020.2.10,Win32,60,60e99bd7bc9be7be49ca9171,60efbd0aed443d0c7ca94121,,,,,E,,,,,,,,,,,,,,,2,1,1.4147,0,30,30,30,1,2,NEW,SIMILAR,,,,,,,,
,,,,,,,,,,,,,,,,TestWords/DAI_RU_CHI.wav,,5b100cb0a3553300017541c8,2021-07-15_05h44.14.232,Agingstudy_mst,2020.2.10,Win32,60,60e99bd7bc9be7be49ca9171,60efbd0aed443d0c7ca94121,,,,,E,,,,,,,,,,,,,,,1,1,0.7577,0,31,31,31,1,1,OLD,OLD,,,,,,,,
,,,,,,,,,,,,,,,,TestWords/NA_VU_WAI.wav,,5b100cb0a3553300017541c8,2021-07-15_05h44.14.232,Agingstudy_mst,2020.2.10,Win32,60,60e99bd7bc9be7be49ca9171,60efbd0aed443d0c7ca94121,,,,,E,,,,,,,,,,,,,,,1,0,0.3536,0,32,32,32,1,2,NEW,SIMILAR,,,,,,,,
,,,,,,,,,,,,,,,,TestWords/KAI_LAY_TA.wav,,5b100cb0a3553300017541c8,2021-07-15_05h44.14.232,Agingstudy_mst,2020.2.10,Win32,60,60e99bd7bc9be7be49ca9171,60efbd0aed443d0c7ca94121,,,,,E,,,,,,,,,,,,,,,1,1,0.7521,0,33,33,33,1,1,OLD,OLD,,,,,,,,
,,,,,,,,,,,,,,,,TestWords/RAY_PA_TI.wav,,5b100cb0a3553300017541c8,2021-07-15_05h44.14.232,Agingstudy_mst,2020.2.10,Win32,60,60e99bd7bc9be7be49ca9171,60efbd0aed443d0c7ca94121,,,,,E,,,,,,,,,,,,,,,1,1,0.3943,0,34,34,34,1,1,OLD,OLD,,,,,,,,
,,,,,,,,,,,,,,,,TestWords/GA_MU_ZI.wav,,5b100cb0a3553300017541c8,2021-07-15_05h44.14.232,Agingstudy_mst,2020.2.10,Win32,60,60e99bd7bc9be7be49ca9171,60efbd0aed443d0c7ca94121,,,,,E,,,,,,,,,,,,,,,2,0,0.6688,0,35,35,35,1,1,OLD,OLD,,,,,,,,
,,,,,,,,,,,,,,,,TestWords/GI_SA_TAI.wav,,5b100cb0a3553300017541c8,2021-07-15_05h44.14.232,Agingstudy_mst,2020.2.10,Win32,60,60e99bd7bc9be7be49ca9171,60efbd0aed443d0c7ca94121,,,,,E,,,,,,,,,,,,,,,1,0,2.0451,0,36,36,36,1,2,NEW,SIMILAR,,,,,,,,
,,,,,,,,,,,,,,,,TestWords/KO_SU_FAI.wav,,5b100cb0a3553300017541c8,2021-07-15_05h44.14.232,Agingstudy_mst,2020.2.10,Win32,60,60e99bd7bc9be7be49ca9171,60efbd0aed443d0c7ca94121,,,,,E,,,,,,,,,,,,,,,2,0,0.6518,0,37,37,37,1,1,OLD,OLD,,,,,,,,
,,,,,,,,,,,,,,,,TestWords/LI_KAY_BA.wav,,5b100cb0a3553300017541c8,2021-07-15_05h44.14.232,Agingstudy_mst,2020.2.10,Win32,60,60e99bd7bc9be7be49ca9171,60efbd0aed443d0c7ca94121,,,,,E,,,,,,,,,,,,,,,1,0,0.445,0,38,38,38,1,2,NEW,SIMILAR,,,,,,,,
,,,,,,,,,,,,,,,,TestWords/NA_WAI_VU.wav,,5b100cb0a3553300017541c8,2021-07-15_05h44.14.232,Agingstudy_mst,2020.2.10,Win32,60,60e99bd7bc9be7be49ca9171,60efbd0aed443d0c7ca94121,,,,,E,,,,,,,,,,,,,,,1,0,0.5724,0,39,39,39,1,2,NEW,SIMILAR,,,,,,,,
,,,,,,,,,,,,,,,,TestWords/KAI_LAY_TA.wav,,5b100cb0a3553300017541c8,2021-07-15_05h44.14.232,Agingstudy_mst,2020.2.10,Win32,60,60e99bd7bc9be7be49ca9171,60efbd0aed443d0c7ca94121,,,,,E,,,,,,,,,,,,,,,2,0,0.6331,0,40,40,40,1,1,OLD,OLD,,,,,,,,
,,,,,,,,,,,,,,,,TestWords/RAY_PA_TI.wav,,5b100cb0a3553300017541c8,2021-07-15_05h44.14.232,Agingstudy_mst,2020.2.10,Win32,60,60e99bd7bc9be7be49ca9171,60efbd0aed443d0c7ca94121,,,,,E,,,,,,,,,,,,,,,1,1,0.2064,0,41,41,41,1,1,OLD,OLD,,,,,,,,
,,,,,,,,,,,,,,,,TestWords/PU_DAY_MO.wav,,5b100cb0a3553300017541c8,2021-07-15_05h44.14.232,Agingstudy_mst,2020.2.10,Win32,60,60e99bd7bc9be7be49ca9171,60efbd0aed443d0c7ca94121,,,,,E,,,,,,,,,,,,,,,2,1,2.6263,0,42,42,42,1,2,NEW,SIMILAR,,,,,,,,
,,,,,,,,,,,,,,,,TestWords/GA_MU_ZI.wav,,5b100cb0a3553300017541c8,2021-07-15_05h44.14.232,Agingstudy_mst,2020.2.10,Win32,60,60e99bd7bc9be7be49ca9171,60efbd0aed443d0c7ca94121,,,,,E,,,,,,,,,,,,,,,1,1,1.0013,0,43,43,43,1,1,OLD,OLD,,,,,,,,
,,,,,,,,,,,,,,,,TestWords/DAI_RU_CHI.wav,,5b100cb0a3553300017541c8,2021-07-15_05h44.14.232,Agingstudy_mst,2020.2.10,Win32,60,60e99bd7bc9be7be49ca9171,60efbd0aed443d0c7ca94121,,,,,E,,,,,,,,,,,,,,,1,1,0.7675,0,44,44,44,1,1,OLD,OLD,,,,,,,,
,,,,,,,,,,,,,,,,TestWords/GI_TAI_SA.wav,,5b100cb0a3553300017541c8,2021-07-15_05h44.14.232,Agingstudy_mst,2020.2.10,Win32,60,60e99bd7bc9be7be49ca9171,60efbd0aed443d0c7ca94121,,,,,E,,,,,,,,,,,,,,,1,0,0.7843,0,45,45,45,1,2,NEW,SIMILAR,,,,,,,,
,,,,,,,,,,,,,,,,TestWords/KO_SU_FAI.wav,,5b100cb0a3553300017541c8,2021-07-15_05h44.14.232,Agingstudy_mst,2020.2.10,Win32,60,60e99bd7bc9be7be49ca9171,60efbd0aed443d0c7ca94121,,,,,E,,,,,,,,,,,,,,,2,0,0.2702,0,46,46,46,1,1,OLD,OLD,,,,,,,,
,,,,,,,,,,,,,,,,TestWords/WAI_RO_JU.wav,,5b100cb0a3553300017541c8,2021-07-15_05h44.14.232,Agingstudy_mst,2020.2.10,Win32,60,60e99bd7bc9be7be49ca9171,60efbd0aed443d0c7ca94121,,,,,E,,,,,,,,,,,,,,,2,1,0.3173,0,47,47,47,1,2,NEW,NEW,,,,,,,,
,,,,,,,,,,,,,,,,TestWords/KAI_LAY_TA.wav,,5b100cb0a3553300017541c8,2021-07-15_05h44.14.232,Agingstudy_mst,2020.2.10,Win32,60,60e99bd7bc9be7be49ca9171,60efbd0aed443d0c7ca94121,,,,,E,,,,,,,,,,,,,,,1,1,0.8185,0,48,48,48,1,1,OLD,OLD,,,,,,,,
,,,,,,,,,,,,,,,,TestWords/DAI_RU_CHI.wav,,5b100cb0a3553300017541c8,2021-07-15_05h44.14.232,Agingstudy_mst,2020.2.10,Win32,60,60e99bd7bc9be7be49ca9171,60efbd0aed443d0c7ca94121,,,,,E,,,,,,,,,,,,,,,1,1,0.8174,0,49,49,49,1,1,OLD,OLD,,,,,,,,
,,,,,,,,,,,,,,,,TestWords/RAY_PA_TI.wav,,5b100cb0a3553300017541c8,2021-07-15_05h44.14.232,Agingstudy_mst,2020.2.10,Win32,60,60e99bd7bc9be7be49ca9171,60efbd0aed443d0c7ca94121,,,,,E,,,,,,,,,,,,,,,1,1,0.1872,0,50,50,50,1,1,OLD,OLD,,,,,,,,
,,,,,,,,,,,,,,,,TestWords/SA_TAI_GI.wav,,5b100cb0a3553300017541c8,2021-07-15_05h44.14.232,Agingstudy_mst,2020.2.10,Win32,60,60e99bd7bc9be7be49ca9171,60efbd0aed443d0c7ca94121,,,,,E,,,,,,,,,,,,,,,1,0,0.3801,0,51,51,51,1,2,NEW,SIMILAR,,,,,,,,
,,,,,,,,,,,,,,,,TestWords/KO_SU_FAI.wav,,5b100cb0a3553300017541c8,2021-07-15_05h44.14.232,Agingstudy_mst,2020.2.10,Win32,60,60e99bd7bc9be7be49ca9171,60efbd0aed443d0c7ca94121,,,,,E,,,,,,,,,,,,,,,1,1,0.8991,0,52,52,52,1,1,OLD,OLD,,,,,,,,
,,,,,,,,,,,,,,,,TestWords/PU_MO_DAY.wav,,5b100cb0a3553300017541c8,2021-07-15_05h44.14.232,Agingstudy_mst,2020.2.10,Win32,60,60e99bd7bc9be7be49ca9171,60efbd0aed443d0c7ca94121,,,,,E,,,,,,,,,,,,,,,1,0,0.4856,0,53,53,53,1,2,NEW,SIMILAR,,,,,,,,
,,,,,,,,,,,,,,,,TestWords/GA_MU_ZI.wav,,5b100cb0a3553300017541c8,2021-07-15_05h44.14.232,Agingstudy_mst,2020.2.10,Win32,60,60e99bd7bc9be7be49ca9171,60efbd0aed443d0c7ca94121,,,,,E,,,,,,,,,,,,,,,1,1,0.3182,0,54,54,54,1,1,OLD,OLD,,,,,,,,
,,,,,,,,,,,,,,,,TestWords/KAI_LAY_TA.wav,,5b100cb0a3553300017541c8,2021-07-15_05h44.14.232,Agingstudy_mst,2020.2.10,Win32,60,60e99bd7bc9be7be49ca9171,60efbd0aed443d0c7ca94121,,,,,E,,,,,,,,,,,,,,,2,0,1.0523,0,55,55,55,1,1,OLD,OLD,,,,,,,,
,,,,,,,,,,,,,,,,TestWords/SA_GI_TAI.wav,,5b100cb0a3553300017541c8,2021-07-15_05h44.14.232,Agingstudy_mst,2020.2.10,Win32,60,60e99bd7bc9be7be49ca9171,60efbd0aed443d0c7ca94121,,,,,E,,,,,,,,,,,,,,,2,1,0.9856,0,56,56,56,1,2,NEW,SIMILAR,,,,,,,,
,,,,,,,,,,,,,,,,TestWords/RAY_PA_TI.wav,,5b100cb0a3553300017541c8,2021-07-15_05h44.14.232,Agingstudy_mst,2020.2.10,Win32,60,60e99bd7bc9be7be49ca9171,60efbd0aed443d0c7ca94121,,,,,E,,,,,,,,,,,,,,,1,1,0.1524,0,57,57,57,1,1,OLD,OLD,,,,,,,,
,,,,,,,,,,,,,,,,TestWords/DAI_RU_CHI.wav,,5b100cb0a3553300017541c8,2021-07-15_05h44.14.232,Agingstudy_mst,2020.2.10,Win32,60,60e99bd7bc9be7be49ca9171,60efbd0aed443d0c7ca94121,,,,,E,,,,,,,,,,,,,,,1,1,0.1862,0,58,58,58,1,1,OLD,OLD,,,,,,,,
,,,,,,,,,,,,,,,,TestWords/KO_SU_FAI.wav,,5b100cb0a3553300017541c8,2021-07-15_05h44.14.232,Agingstudy_mst,2020.2.10,Win32,60,60e99bd7bc9be7be49ca9171,60efbd0aed443d0c7ca94121,,,,,E,,,,,,,,,,,,,,,2,0,0.7011,0,59,59,59,1,1,OLD,OLD,,,,,,,,
,,,,,,,,,,,,,,,,TestWords/ZO_RAI_FU.wav,,5b100cb0a3553300017541c8,2021-07-15_05h44.14.232,Agingstudy_mst,2020.2.10,Win32,60,60e99bd7bc9be7be49ca9171,60efbd0aed443d0c7ca94121,,,,,E,,,,,,,,,,,,,,,2,1,0.9516,0,60,60,60,1,2,NEW,NEW,,,,,,,,
,,,,,,,,,,,,,,,,TestWords/KAI_LAY_TA.wav,,5b100cb0a3553300017541c8,2021-07-15_05h44.14.232,Agingstudy_mst,2020.2.10,Win32,60,60e99bd7bc9be7be49ca9171,60efbd0aed443d0c7ca94121,,,,,E,,,,,,,,,,,,,,,1,1,0.4071,0,61,61,61,1,1,OLD,OLD,,,,,,,,
,,,,,,,,,,,,,,,,TestWords/GA_MU_ZI.wav,,5b100cb0a3553300017541c8,2021-07-15_05h44.14.232,Agingstudy_mst,2020.2.10,Win32,60,60e99bd7bc9be7be49ca9171,60efbd0aed443d0c7ca94121,,,,,E,,,,,,,,,,,,,,,1,1,0.1166,0,62,62,62,1,1,OLD,OLD,,,,,,,,
,,,,,,,,,,,,,,,,TestWords/TAI_GI_SA.wav,,5b100cb0a3553300017541c8,2021-07-15_05h44.14.232,Agingstudy_mst,2020.2.10,Win32,60,60e99bd7bc9be7be49ca9171,60efbd0aed443d0c7ca94121,,,,,E,,,,,,,,,,,,,,,2,1,0.638,0,63,63,63,1,2,NEW,SIMILAR,,,,,,,,
,,,,,,,,,,,,,,,,TestWords/RAY_PA_TI.wav,,5b100cb0a3553300017541c8,2021-07-15_05h44.14.232,Agingstudy_mst,2020.2.10,Win32,60,60e99bd7bc9be7be49ca9171,60efbd0aed443d0c7ca94121,,,,,E,,,,,,,,,,,,,,,1,1,0.0543,0,64,64,64,1,1,OLD,OLD,,,,,,,,
,,,,,,,,,,,,,,,,TestWords/DAY_PU_MO.wav,,5b100cb0a3553300017541c8,2021-07-15_05h44.14.232,Agingstudy_mst,2020.2.10,Win32,60,60e99bd7bc9be7be49ca9171,60efbd0aed443d0c7ca94121,,,,,E,,,,,,,,,,,,,,,1,0,0.2678,0,65,65,65,1,2,NEW,SIMILAR,,,,,,,,
,,,,,,,,,,,,,,,,TestWords/KO_SU_FAI.wav,,5b100cb0a3553300017541c8,2021-07-15_05h44.14.232,Agingstudy_mst,2020.2.10,Win32,60,60e99bd7bc9be7be49ca9171,60efbd0aed443d0c7ca94121,,,,,E,,,,,,,,,,,,,,,1,1,0.2957,0,66,66,66,1,1,OLD,OLD,,,,,,,,
,,,,,,,,,,,,,,,,TestWords/DAI_RU_CHI.wav,,5b100cb0a3553300017541c8,2021-07-15_05h44.14.232,Agingstudy_mst,2020.2.10,Win32,60,60e99bd7bc9be7be49ca9171,60efbd0aed443d0c7ca94121,,,,,E,,,,,,,,,,,,,,,1,1,0.1508,0,67,67,67,1,1,OLD,OLD,,,,,,,,
,,,,,,,,,,,,,,,,TestWords/KAI_LAY_TA.wav,,5b100cb0a3553300017541c8,2021-07-15_05h44.14.232,Agingstudy_mst,2020.2.10,Win32,60,60e99bd7bc9be7be49ca9171,60efbd0aed443d0c7ca94121,,,,,E,,,,,,,,,,,,,,,1,1,0.3856,0,68,68,68,1,1,OLD,OLD,,,,,,,,
,,,,,,,,,,,,,,,,TestWords/SI_VAI_CHU.wav,,5b100cb0a3553300017541c8,2021-07-15_05h44.14.232,Agingstudy_mst,2020.2.10,Win32,60,60e99bd7bc9be7be49ca9171,60efbd0aed443d0c7ca94121,,,,,E,,,,,,,,,,,,,,,2,1,0.5839,0,69,69,69,1,2,NEW,NEW,,,,,,,,
,,,,,,,,,,,,,,,,TestWords/GA_MU_ZI.wav,,5b100cb0a3553300017541c8,2021-07-15_05h44.14.232,Agingstudy_mst,2020.2.10,Win32,60,60e99bd7bc9be7be49ca9171,60efbd0aed443d0c7ca94121,,,,,E,,,,,,,,,,,,,,,1,1,0.2179,0,70,70,70,1,1,OLD,OLD,,,,,,,,
,,,,,,,,,,,,,,,,TestWords/KO_SU_FAI.wav,,5b100cb0a3553300017541c8,2021-07-15_05h44.14.232,Agingstudy_mst,2020.2.10,Win32,60,60e99bd7bc9be7be49ca9171,60efbd0aed443d0c7ca94121,,,,,E,,,,,,,,,,,,,,,1,1,0.2403,0,71,71,71,1,1,OLD,OLD,,,,,,,,
,,,,,,,,,,,,,,,,TestWords/RAI_FU_ZO.wav,,5b100cb0a3553300017541c8,2021-07-15_05h44.14.232,Agingstudy_mst,2020.2.10,Win32,60,60e99bd7bc9be7be49ca9171,60efbd0aed443d0c7ca94121,,,,,E,,,,,,,,,,,,,,,2,1,0.3467,0,72,72,72,1,2,NEW,SIMILAR,,,,,,,,
,,,,,,,,,,,,,,,,TestWords/KAI_LAY_TA.wav,,5b100cb0a3553300017541c8,2021-07-15_05h44.14.232,Agingstudy_mst,2020.2.10,Win32,60,60e99bd7bc9be7be49ca9171,60efbd0aed443d0c7ca94121,,,,,E,,,,,,,,,,,,,,,1,1,0.0536,0,73,73,73,1,1,OLD,OLD,,,,,,,,
,,,,,,,,,,,,,,,,TestWords/RAY_PA_TI.wav,,5b100cb0a3553300017541c8,2021-07-15_05h44.14.232,Agingstudy_mst,2020.2.10,Win32,60,60e99bd7bc9be7be49ca9171,60efbd0aed443d0c7ca94121,,,,,E,,,,,,,,,,,,,,,1,1,0.1024,0,74,74,74,1,1,OLD,OLD,,,,,,,,
,,,,,,,,,,,,,,,,TestWords/DAI_RU_CHI.wav,,5b100cb0a3553300017541c8,2021-07-15_05h44.14.232,Agingstudy_mst,2020.2.10,Win32,60,60e99bd7bc9be7be49ca9171,60efbd0aed443d0c7ca94121,,,,,E,,,,,,,,,,,,,,,1,1,0.2013,0,75,75,75,1,1,OLD,OLD,,,,,,,,
,,,,,,,,,,,,,,,,TestWords/MO_PU_DAY.wav,,5b100cb0a3553300017541c8,2021-07-15_05h44.14.232,Agingstudy_mst,2020.2.10,Win32,60,60e99bd7bc9be7be49ca9171,60efbd0aed443d0c7ca94121,,,,,E,,,,,,,,,,,,,,,1,0,0.6512,0,76,76,76,1,2,NEW,SIMILAR,,,,,,,,
,,,,,,,,,,,,,,,,TestWords/GA_MU_ZI.wav,,5b100cb0a3553300017541c8,2021-07-15_05h44.14.232,Agingstudy_mst,2020.2.10,Win32,60,60e99bd7bc9be7be49ca9171,60efbd0aed443d0c7ca94121,,,,,E,,,,,,,,,,,,,,,1,1,0.2865,0,77,77,77,1,1,OLD,OLD,,,,,,,,
,,,,,,,,,,,,,,,,TestWords/KO_SU_FAI.wav,,5b100cb0a3553300017541c8,2021-07-15_05h44.14.232,Agingstudy_mst,2020.2.10,Win32,60,60e99bd7bc9be7be49ca9171,60efbd0aed443d0c7ca94121,,,,,E,,,,,,,,,,,,,,,1,1,0.3842,0,78,78,78,1,1,OLD,OLD,,,,,,,,
,,,,,,,,,,,,,,,,TestWords/NO_WA_BAY.wav,,5b100cb0a3553300017541c8,2021-07-15_05h44.14.232,Agingstudy_mst,2020.2.10,Win32,60,60e99bd7bc9be7be49ca9171,60efbd0aed443d0c7ca94121,,,,,E,,,,,,,,,,,,,,,2,1,0.3011,0,79,79,79,1,2,NEW,NEW,,,,,,,,
,,,,,,,,,,,,,,,,TestWords/KAI_LAY_TA.wav,,5b100cb0a3553300017541c8,2021-07-15_05h44.14.232,Agingstudy_mst,2020.2.10,Win32,60,60e99bd7bc9be7be49ca9171,60efbd0aed443d0c7ca94121,,,,,E,,,,,,,,,,,,,,,1,1,0.7761,0,80,80,80,1,1,OLD,OLD,,,,,,,,
,,,,,,,,,,,,,,,,TestWords/RAY_PA_TI.wav,,5b100cb0a3553300017541c8,2021-07-15_05h44.14.232,Agingstudy_mst,2020.2.10,Win32,60,60e99bd7bc9be7be49ca9171,60efbd0aed443d0c7ca94121,,,,,E,,,,,,,,,,,,,,,1,1,0.1069,0,81,81,81,1,1,OLD,OLD,,,,,,,,
,,,,,,,,,,,,,,,,TestWords/RAI_ZO_FU.wav,,5b100cb0a3553300017541c8,2021-07-15_05h44.14.232,Agingstudy_mst,2020.2.10,Win32,60,60e99bd7bc9be7be49ca9171,60efbd0aed443d0c7ca94121,,,,,E,,,,,,,,,,,,,,,1,0,0.5691,0,82,82,82,1,2,NEW,SIMILAR,,,,,,,,
,,,,,,,,,,,,,,,,TestWords/DAI_RU_CHI.wav,,5b100cb0a3553300017541c8,2021-07-15_05h44.14.232,Agingstudy_mst,2020.2.10,Win32,60,60e99bd7bc9be7be49ca9171,60efbd0aed443d0c7ca94121,,,,,E,,,,,,,,,,,,,,,1,1,0.2051,0,83,83,83,1,1,OLD,OLD,,,,,,,,
,,,,,,,,,,,,,,,,TestWords/HA_SI_JAI.wav,,5b100cb0a3553300017541c8,2021-07-15_05h44.14.232,Agingstudy_mst,2020.2.10,Win32,60,60e99bd7bc9be7be49ca9171,60efbd0aed443d0c7ca94121,,,,,E,,,,,,,,,,,,,,,2,1,0.4173,0,84,84,84,1,2,NEW,NEW,,,,,,,,
,,,,,,,,,,,,,,,,TestWords/KO_SU_FAI.wav,,5b100cb0a3553300017541c8,2021-07-15_05h44.14.232,Agingstudy_mst,2020.2.10,Win32,60,60e99bd7bc9be7be49ca9171,60efbd0aed443d0c7ca94121,,,,,E,,,,,,,,,,,,,,,1,1,0.2005,0,85,85,85,1,1,OLD,OLD,,,,,,,,
,,,,,,,,,,,,,,,,TestWords/KAI_LAY_TA.wav,,5b100cb0a3553300017541c8,2021-07-15_05h44.14.232,Agingstudy_mst,2020.2.10,Win32,60,60e99bd7bc9be7be49ca9171,60efbd0aed443d0c7ca94121,,,,,E,,,,,,,,,,,,,,,1,1,0.4423,0,86,86,86,1,1,OLD,OLD,,,,,,,,
,,,,,,,,,,,,,,,,TestWords/GA_MU_ZI.wav,,5b100cb0a3553300017541c8,2021-07-15_05h44.14.232,Agingstudy_mst,2020.2.10,Win32,60,60e99bd7bc9be7be49ca9171,60efbd0aed443d0c7ca94121,,,,,E,,,,,,,,,,,,,,,1,1,0.4479,0,87,87,87,1,1,OLD,OLD,,,,,,,,
,,,,,,,,,,,,,,,,TestWords/FU_ZO_RAI.wav,,5b100cb0a3553300017541c8,2021-07-15_05h44.14.232,Agingstudy_mst,2020.2.10,Win32,60,60e99bd7bc9be7be49ca9171,60efbd0aed443d0c7ca94121,,,,,E,,,,,,,,,,,,,,,1,0,1.6854,0,88,88,88,1,2,NEW,SIMILAR,,,,,,,,
,,,,,,,,,,,,,,,,TestWords/KO_SU_FAI.wav,,5b100cb0a3553300017541c8,2021-07-15_05h44.14.232,Agingstudy_mst,2020.2.10,Win32,60,60e99bd7bc9be7be49ca9171,60efbd0aed443d0c7ca94121,,,,,E,,,,,,,,,,,,,,,1,1,0.2683,0,89,89,89,1,1,OLD,OLD,,,,,,,,
,,,,,,,,,,,,,,,,TestWords/KAI_LAY_TA.wav,,5b100cb0a3553300017541c8,2021-07-15_05h44.14.232,Agingstudy_mst,2020.2.10,Win32,60,60e99bd7bc9be7be49ca9171,60efbd0aed443d0c7ca94121,,,,,E,,,,,,,,,,,,,,,1,1,0.3229,0,90,90,90,1,1,OLD,OLD,,,,,,,,
,,,,,,,,,,,,,,,,TestWords/DAI_RU_CHI.wav,,5b100cb0a3553300017541c8,2021-07-15_05h44.14.232,Agingstudy_mst,2020.2.10,Win32,60,60e99bd7bc9be7be49ca9171,60efbd0aed443d0c7ca94121,,,,,E,,,,,,,,,,,,,,,1,1,0.1293,0,91,91,91,1,1,OLD,OLD,,,,,,,,
,,,,,,,,,,,,,,,,TestWords/HI_NAY_VA.wav,,5b100cb0a3553300017541c8,2021-07-15_05h44.14.232,Agingstudy_mst,2020.2.10,Win32,60,60e99bd7bc9be7be49ca9171,60efbd0aed443d0c7ca94121,,,,,E,,,,,,,,,,,,,,,2,1,0.1521,0,92,92,92,1,2,NEW,NEW,,,,,,,,
,,,,,,,,,,,,,,,,TestWords/GU_CHAI_PI.wav,,5b100cb0a3553300017541c8,2021-07-15_05h44.14.232,Agingstudy_mst,2020.2.10,Win32,60,60e99bd7bc9be7be49ca9171,60efbd0aed443d0c7ca94121,,,,,E,,,,,,,,,,,,,,,2,1,0.2743,0,93,93,93,1,2,NEW,NEW,,,,,,,,
,,,,,,,,,,,,,,,,TestWords/FU_RAI_ZO.wav,,5b100cb0a3553300017541c8,2021-07-15_05h44.14.232,Agingstudy_mst,2020.2.10,Win32,60,60e99bd7bc9be7be49ca9171,60efbd0aed443d0c7ca94121,,,,,E,,,,,,,,,,,,,,,1,0,0.2255,0,94,94,94,1,2,NEW,SIMILAR,,,,,,,,
,,,,,,,,,,,,,,,,TestWords/KO_SU_FAI.wav,,5b100cb0a3553300017541c8,2021-07-15_05h44.14.232,Agingstudy_mst,2020.2.10,Win32,60,60e99bd7bc9be7be49ca9171,60efbd0aed443d0c7ca94121,,,,,E,,,,,,,,,,,,,,,1,1,0.4453,0,95,95,95,1,1,OLD,OLD,,,,,,,,
,,,,,,,,,,,,,,,,TestWords/PAI_LU_WA.wav,,5b100cb0a3553300017541c8,2021-07-15_05h44.14.232,Agingstudy_mst,2020.2.10,Win32,60,60e99bd7bc9be7be49ca9171,60efbd0aed443d0c7ca94121,,,,,E,,,,,,,,,,,,,,,1,0,0.4371,0,96,96,96,1,2,NEW,NEW,,,,,,,,
,,,,,,,,,,,,,,,,TestWords/DAI_RU_CHI.wav,,5b100cb0a3553300017541c8,2021-07-15_05h44.14.232,Agingstudy_mst,2020.2.10,Win32,60,60e99bd7bc9be7be49ca9171,60efbd0aed443d0c7ca94121,,,,,E,,,,,,,,,,,,,,,1,1,0.3509,0,97,97,97,1,1,OLD,OLD,,,,,,,,
,,,,,,,,,,,,,,,,TestWords/FI_GU_CHA.wav,,5b100cb0a3553300017541c8,2021-07-15_05h44.14.232,Agingstudy_mst,2020.2.10,Win32,60,60e99bd7bc9be7be49ca9171,60efbd0aed443d0c7ca94121,,,,,E,,,,,,,,,,,,,,,1,0,1.1963,0,98,98,98,1,2,NEW,NEW,,,,,,,,
,,,,,,,,,,,,,,,,TestWords/ZO_FU_RAI.wav,,5b100cb0a3553300017541c8,2021-07-15_05h44.14.232,Agingstudy_mst,2020.2.10,Win32,60,60e99bd7bc9be7be49ca9171,60efbd0aed443d0c7ca94121,,,,,E,,,,,,,,,,,,,,,1,0,0.232,0,99,99,99,1,2,NEW,SIMILAR,,,,,,,,
,,,,,,,,,,,,,,,,,,5b100cb0a3553300017541c8,2021-07-15_05h44.14.232,Agingstudy_mst,2020.2.10,Win32,60,60e99bd7bc9be7be49ca9171,60efbd0aed443d0c7ca94121,,,,,,,,,,,,,,,,,,,,,,,,,,,,,,,0,0,0,0,1,,,
,,,,,,,,,,,,,,,,,,5b100cb0a3553300017541c8,2021-07-15_05h44.14.232,Agingstudy_mst,2020.2.10,Win32,60,60e99bd7bc9be7be49ca9171,60efbd0aed443d0c7ca94121,,,,,,,,,,,,,,,,,,,,,,,,,,,,,,,,,,,,return,12.4125,
