Welcome0Continue.keys,Welcome0Continue.rt,SoundCheckBegin.keys,SoundCheckBegin.rt,SoundCheckEndKey.keys,SoundCheckEndKey.rt,HeadphoneContinueKey.keys,HeadphoneContinueKey.rt,CheckResp.keys,CheckResp.corr,CheckResp.rt,HeadphoneLoop.thisRepN,HeadphoneLoop.thisTrialN,HeadphoneLoop.thisN,HeadphoneLoop.thisIndex,HeadphoneLoop.ran,File,Correct,participant,date,expName,psychopyVersion,OS,frameRate,STUDY_ID,SESSION_ID,ContinueKey8.keys,ContinueKey8.rt,MSTWelcomeContKey.keys,MSTWelcomeContKey.rt,Condition,MSTTrainIntroKey.keys,MSTTrainIntroKey.rt,MSTTrainKeys.keys,MSTTrainKeys.corr,MSTTrainKeys.rt,MSTTrainLoop.thisRepN,MSTTrainLoop.thisTrialN,MSTTrainLoop.thisN,MSTTrainLoop.thisIndex,MSTTrainLoop.ran,SoundFile,Type,MSTTestBeginKey.keys,MSTTestBeginKey.rt,MST_resp.keys,MST_resp.corr,MST_resp.rt,MSTPlayLoop.thisRepN,MSTPlayLoop.thisTrialN,MSTPlayLoop.thisN,MSTPlayLoop.thisIndex,MSTPlayLoop.ran,WordCorrect,Correct_type,WordType,MSTLoop.thisRepN,MSTLoop.thisTrialN,MSTLoop.thisN,MSTLoop.thisIndex,MSTLoop.ran,EndAllKey.keys,EndAllKey.rt,FeedbackResp.text
space,25.2942,space,7.3768,space,22.3736,space,19.0202,3,1,2.2427,0,0,0,5,1,Headphone/t3_2.wav,3,5da9a1659413e4001505d7f7,2021-07-15_06h45.39.385,Agingstudy_mst,2020.2.10,Win32,60,60e99bd7bc9be7be49ca9171,60efcb4c8fc977d835343825,,,,,,,,,,,,,,,,,,,,,,,,,,,,,,,,,,,,,,
,,,,,,,,3,0,5.3538,0,1,1,0,1,Headphone/t1_1.wav,1,5da9a1659413e4001505d7f7,2021-07-15_06h45.39.385,Agingstudy_mst,2020.2.10,Win32,60,60e99bd7bc9be7be49ca9171,60efcb4c8fc977d835343825,,,,,,,,,,,,,,,,,,,,,,,,,,,,,,,,,,,,,,
,,,,,,,,2,1,0.6626,0,2,2,2,1,Headphone/t2_1.wav,2,5da9a1659413e4001505d7f7,2021-07-15_06h45.39.385,Agingstudy_mst,2020.2.10,Win32,60,60e99bd7bc9be7be49ca9171,60efcb4c8fc977d835343825,,,,,,,,,,,,,,,,,,,,,,,,,,,,,,,,,,,,,,
,,,,,,,,1,1,0.6019,0,3,3,1,1,Headphone/t1_2.wav,1,5da9a1659413e4001505d7f7,2021-07-15_06h45.39.385,Agingstudy_mst,2020.2.10,Win32,60,60e99bd7bc9be7be49ca9171,60efcb4c8fc977d835343825,,,,,,,,,,,,,,,,,,,,,,,,,,,,,,,,,,,,,,
,,,,,,,,2,1,0.6518,0,4,4,3,1,Headphone/t2_2.wav,2,5da9a1659413e4001505d7f7,2021-07-15_06h45.39.385,Agingstudy_mst,2020.2.10,Win32,60,60e99bd7bc9be7be49ca9171,60efcb4c8fc977d835343825,,,,,,,,,,,,,,,,,,,,,,,,,,,,,,,,,,,,,,
,,,,,,,,3,1,0.4539,0,5,5,4,1,Headphone/t3_1.wav,3,5da9a1659413e4001505d7f7,2021-07-15_06h45.39.385,Agingstudy_mst,2020.2.10,Win32,60,60e99bd7bc9be7be49ca9171,60efcb4c8fc977d835343825,,,,,,,,,,,,,,,,,,,,,,,,,,,,,,,,,,,,,,
,,,,,,,,,,,,,,,,,2,5da9a1659413e4001505d7f7,2021-07-15_06h45.39.385,Agingstudy_mst,2020.2.10,Win32,60,60e99bd7bc9be7be49ca9171,60efcb4c8fc977d835343825,space,22.0352,space,9.7638,1,space,7.3817,2,1,12.1365,0,0,0,0,1,Training/FO_YI_LAY.wav,NEW,,,,,,,,,,,,,,,,,,,,,
,,,,,,,,,,,,,,,,,1,5da9a1659413e4001505d7f7,2021-07-15_06h45.39.385,Agingstudy_mst,2020.2.10,Win32,60,60e99bd7bc9be7be49ca9171,60efcb4c8fc977d835343825,,,,,,,,2,0,10.488,0,1,1,1,1,Training/FO_YI_LAY.wav,OLD,,,,,,,,,,,,,,,,,,,,,
,,,,,,,,,,,,,,,,,2,5da9a1659413e4001505d7f7,2021-07-15_06h45.39.385,Agingstudy_mst,2020.2.10,Win32,60,60e99bd7bc9be7be49ca9171,60efcb4c8fc977d835343825,,,,,,,,2,1,5.257,0,2,2,2,1,Training/YO_BU_JAY.wav,NEW,,,,,,,,,,,,,,,,,,,,,
,,,,,,,,,,,,,,,,,2,5da9a1659413e4001505d7f7,2021-07-15_06h45.39.385,Agingstudy_mst,2020.2.10,Win32,60,60e99bd7bc9be7be49ca9171,60efcb4c8fc977d835343825,,,,,,,,1,0,7.6701,0,3,3,3,1,Training/JAY_YO_BU.wav,SIMILAR,,,,,,,,,,,,,,,,,,,,,
,,,,,,,,,,,,,,,,,1,5da9a1659413e4001505d7f7,2021-07-15_06h45.39.385,Agingstudy_mst,2020.2.10,Win32,60,60e99bd7bc9be7be49ca9171,60efcb4c8fc977d835343825,,,,,,,,2,0,2.6202,0,4,4,4,1,Training/FO_YI_LAY.wav,OLD,,,,,,,,,,,,,,,,,,,,,
,,,,,,,,,,,,,,,,TestWords/SI_VAI_CHU.wav,,5da9a1659413e4001505d7f7,2021-07-15_06h45.39.385,Agingstudy_mst,2020.2.10,Win32,60,60e99bd7bc9be7be49ca9171,60efcb4c8fc977d835343825,,,,,F,,,,,,,,,,,,,space,9.4239,2,1,10.7646,0,0,0,0,1,2,NEW,NEW,,,,,,,,
,,,,,,,,,,,,,,,,TestWords/HO_NAY_VA.wav,,5da9a1659413e4001505d7f7,2021-07-15_06h45.39.385,Agingstudy_mst,2020.2.10,Win32,60,60e99bd7bc9be7be49ca9171,60efcb4c8fc977d835343825,,,,,F,,,,,,,,,,,,,,,2,1,4.8683,0,1,1,1,1,2,NEW,NEW,,,,,,,,
,,,,,,,,,,,,,,,,TestWords/KAI_LAY_TA.wav,,5da9a1659413e4001505d7f7,2021-07-15_06h45.39.385,Agingstudy_mst,2020.2.10,Win32,60,60e99bd7bc9be7be49ca9171,60efcb4c8fc977d835343825,,,,,F,,,,,,,,,,,,,,,2,1,5.4843,0,2,2,2,1,2,NEW,NEW,,,,,,,,
,,,,,,,,,,,,,,,,TestWords/PAI_LU_WA.wav,,5da9a1659413e4001505d7f7,2021-07-15_06h45.39.385,Agingstudy_mst,2020.2.10,Win32,60,60e99bd7bc9be7be49ca9171,60efcb4c8fc977d835343825,,,,,F,,,,,,,,,,,,,,,2,1,2.8347,0,3,3,3,1,2,NEW,NEW,,,,,,,,
,,,,,,,,,,,,,,,,TestWords/WAI_VU_NA.wav,,5da9a1659413e4001505d7f7,2021-07-15_06h45.39.385,Agingstudy_mst,2020.2.10,Win32,60,60e99bd7bc9be7be49ca9171,60efcb4c8fc977d835343825,,,,,F,,,,,,,,,,,,,,,2,1,3.9336,0,4,4,4,1,2,NEW,NEW,,,,,,,,
,,,,,,,,,,,,,,,,TestWords/VAI_HO_LA.wav,,5da9a1659413e4001505d7f7,2021-07-15_06h45.39.385,Agingstudy_mst,2020.2.10,Win32,60,60e99bd7bc9be7be49ca9171,60efcb4c8fc977d835343825,,,,,F,,,,,,,,,,,,,,,2,1,3.0308,0,5,5,5,1,2,NEW,NEW,,,,,,,,
,,,,,,,,,,,,,,,,TestWords/GU_CHAI_PI.wav,,5da9a1659413e4001505d7f7,2021-07-15_06h45.39.385,Agingstudy_mst,2020.2.10,Win32,60,60e99bd7bc9be7be49ca9171,60efcb4c8fc977d835343825,,,,,F,,,,,,,,,,,,,,,1,0,3.673,0,6,6,6,1,2,NEW,NEW,,,,,,,,
,,,,,,,,,,,,,,,,TestWords/KO_SU_FAI.wav,,5da9a1659413e4001505d7f7,2021-07-15_06h45.39.385,Agingstudy_mst,2020.2.10,Win32,60,60e99bd7bc9be7be49ca9171,60efcb4c8fc977d835343825,,,,,F,,,,,,,,,,,,,,,1,0,2.4989,0,7,7,7,1,2,NEW,NEW,,,,,,,,
,,,,,,,,,,,,,,,,TestWords/KAI_LAY_TA.wav,,5da9a1659413e4001505d7f7,2021-07-15_06h45.39.385,Agingstudy_mst,2020.2.10,Win32,60,60e99bd7bc9be7be49ca9171,60efcb4c8fc977d835343825,,,,,F,,,,,,,,,,,,,,,2,0,1.6699,0,8,8,8,1,1,OLD,OLD,,,,,,,,
,,,,,,,,,,,,,,,,TestWords/BA_KAY_LI.wav,,5da9a1659413e4001505d7f7,2021-07-15_06h45.39.385,Agingstudy_mst,2020.2.10,Win32,60,60e99bd7bc9be7be49ca9171,60efcb4c8fc977d835343825,,,,,F,,,,,,,,,,,,,,,2,1,2.1347,0,9,9,9,1,2,NEW,NEW,,,,,,,,
,,,,,,,,,,,,,,,,TestWords/DAI_RU_CHI.wav,,5da9a1659413e4001505d7f7,2021-07-15_06h45.39.385,Agingstudy_mst,2020.2.10,Win32,60,60e99bd7bc9be7be49ca9171,60efcb4c8fc977d835343825,,,,,F,,,,,,,,,,,,,,,2,1,1.2517,0,10,10,10,1,2,NEW,NEW,,,,,,,,
,,,,,,,,,,,,,,,,TestWords/WAI_NA_VU.wav,,5da9a1659413e4001505d7f7,2021-07-15_06h45.39.385,Agingstudy_mst,2020.2.10,Win32,60,60e99bd7bc9be7be49ca9171,60efcb4c8fc977d835343825,,,,,F,,,,,,,,,,,,,,,2,1,0.5344,0,11,11,11,1,2,NEW,SIMILAR,,,,,,,,
,,,,,,,,,,,,,,,,TestWords/DA_CHU_VAI.wav,,5da9a1659413e4001505d7f7,2021-07-15_06h45.39.385,Agingstudy_mst,2020.2.10,Win32,60,60e99bd7bc9be7be49ca9171,60efcb4c8fc977d835343825,,,,,F,,,,,,,,,,,,,,,2,1,2.0019,0,12,12,12,1,2,NEW,NEW,,,,,,,,
,,,,,,,,,,,,,,,,TestWords/KAI_LAY_TA.wav,,5da9a1659413e4001505d7f7,2021-07-15_06h45.39.385,Agingstudy_mst,2020.2.10,Win32,60,60e99bd7bc9be7be49ca9171,60efcb4c8fc977d835343825,,,,,F,,,,,,,,,,,,,,,2,0,1.1014,0,13,13,13,1,1,OLD,OLD,,,,,,,,
,,,,,,,,,,,,,,,,TestWords/KO_SU_FAI.wav,,5da9a1659413e4001505d7f7,2021-07-15_06h45.39.385,Agingstudy_mst,2020.2.10,Win32,60,60e99bd7bc9be7be49ca9171,60efcb4c8fc977d835343825,,,,,F,,,,,,,,,,,,,,,1,1,1.3849,0,14,14,14,1,1,OLD,OLD,,,,,,,,
,,,,,,,,,,,,,,,,TestWords/VU_NA_WAI.wav,,5da9a1659413e4001505d7f7,2021-07-15_06h45.39.385,Agingstudy_mst,2020.2.10,Win32,60,60e99bd7bc9be7be49ca9171,60efcb4c8fc977d835343825,,,,,F,,,,,,,,,,,,,,,2,1,0.7014,0,15,15,15,1,2,NEW,SIMILAR,,,,,,,,
,,,,,,,,,,,,,,,,TestWords/DAI_RU_CHI.wav,,5da9a1659413e4001505d7f7,2021-07-15_06h45.39.385,Agingstudy_mst,2020.2.10,Win32,60,60e99bd7bc9be7be49ca9171,60efcb4c8fc977d835343825,,,,,F,,,,,,,,,,,,,,,2,0,0.9017,0,16,16,16,1,1,OLD,OLD,,,,,,,,
,,,,,,,,,,,,,,,,TestWords/KAY_LI_BA.wav,,5da9a1659413e4001505d7f7,2021-07-15_06h45.39.385,Agingstudy_mst,2020.2.10,Win32,60,60e99bd7bc9be7be49ca9171,60efcb4c8fc977d835343825,,,,,F,,,,,,,,,,,,,,,2,1,1.2174,0,17,17,17,1,2,NEW,SIMILAR,,,,,,,,
,,,,,,,,,,,,,,,,TestWords/RAY_PA_TI.wav,,5da9a1659413e4001505d7f7,2021-07-15_06h45.39.385,Agingstudy_mst,2020.2.10,Win32,60,60e99bd7bc9be7be49ca9171,60efcb4c8fc977d835343825,,,,,F,,,,,,,,,,,,,,,2,1,1.4711,0,18,18,18,1,2,NEW,NEW,,,,,,,,
,,,,,,,,,,,,,,,,TestWords/KAI_LAY_TA.wav,,5da9a1659413e4001505d7f7,2021-07-15_06h45.39.385,Agingstudy_mst,2020.2.10,Win32,60,60e99bd7bc9be7be49ca9171,60efcb4c8fc977d835343825,,,,,F,,,,,,,,,,,,,,,2,0,1.7046,0,19,19,19,1,1,OLD,OLD,,,,,,,,
,,,,,,,,,,,,,,,,TestWords/VU_WAI_NA.wav,,5da9a1659413e4001505d7f7,2021-07-15_06h45.39.385,Agingstudy_mst,2020.2.10,Win32,60,60e99bd7bc9be7be49ca9171,60efcb4c8fc977d835343825,,,,,F,,,,,,,,,,,,,,,2,1,2.2243,0,20,20,20,1,2,NEW,SIMILAR,,,,,,,,
,,,,,,,,,,,,,,,,TestWords/KO_SU_FAI.wav,,5da9a1659413e4001505d7f7,2021-07-15_06h45.39.385,Agingstudy_mst,2020.2.10,Win32,60,60e99bd7bc9be7be49ca9171,60efcb4c8fc977d835343825,,,,,F,,,,,,,,,,,,,,,1,1,1.9022,0,21,21,21,1,1,OLD,OLD,,,,,,,,
,,,,,,,,,,,,,,,,TestWords/HI_NAY_VA.wav,,5da9a1659413e4001505d7f7,2021-07-15_06h45.39.385,Agingstudy_mst,2020.2.10,Win32,60,60e99bd7bc9be7be49ca9171,60efcb4c8fc977d835343825,,,,,F,,,,,,,,,,,,,,,2,1,3.2532,0,22,22,22,1,2,NEW,NEW,,,,,,,,
,,,,,,,,,,,,,,,,TestWords/KAI_LAY_TA.wav,,5da9a1659413e4001505d7f7,2021-07-15_06h45.39.385,Agingstudy_mst,2020.2.10,Win32,60,60e99bd7bc9be7be49ca9171,60efcb4c8fc977d835343825,,,,,F,,,,,,,,,,,,,,,2,0,2.7512,0,23,23,23,1,1,OLD,OLD,,,,,,,,
,,,,,,,,,,,,,,,,TestWords/RAY_PA_TI.wav,,5da9a1659413e4001505d7f7,2021-07-15_06h45.39.385,Agingstudy_mst,2020.2.10,Win32,60,60e99bd7bc9be7be49ca9171,60efcb4c8fc977d835343825,,,,,F,,,,,,,,,,,,,,,2,0,0.9386,0,24,24,24,1,1,OLD,OLD,,,,,,,,
,,,,,,,,,,,,,,,,TestWords/DAI_RU_CHI.wav,,5da9a1659413e4001505d7f7,2021-07-15_06h45.39.385,Agingstudy_mst,2020.2.10,Win32,60,60e99bd7bc9be7be49ca9171,60efcb4c8fc977d835343825,,,,,F,,,,,,,,,,,,,,,1,1,1.7685,0,25,25,25,1,1,OLD,OLD,,,,,,,,
,,,,,,,,,,,,,,,,TestWords/NA_VU_WAI.wav,,5da9a1659413e4001505d7f7,2021-07-15_06h45.39.385,Agingstudy_mst,2020.2.10,Win32,60,60e99bd7bc9be7be49ca9171,60efcb4c8fc977d835343825,,,,,F,,,,,,,,,,,,,,,1,0,1.7728,0,26,26,26,1,2,NEW,SIMILAR,,,,,,,,
,,,,,,,,,,,,,,,,TestWords/KAY_BA_LI.wav,,5da9a1659413e4001505d7f7,2021-07-15_06h45.39.385,Agingstudy_mst,2020.2.10,Win32,60,60e99bd7bc9be7be49ca9171,60efcb4c8fc977d835343825,,,,,F,,,,,,,,,,,,,,,2,1,1.5557,0,27,27,27,1,2,NEW,SIMILAR,,,,,,,,
,,,,,,,,,,,,,,,,TestWords/KO_SU_FAI.wav,,5da9a1659413e4001505d7f7,2021-07-15_06h45.39.385,Agingstudy_mst,2020.2.10,Win32,60,60e99bd7bc9be7be49ca9171,60efcb4c8fc977d835343825,,,,,F,,,,,,,,,,,,,,,1,1,2.7525,0,28,28,28,1,1,OLD,OLD,,,,,,,,
,,,,,,,,,,,,,,,,TestWords/KAI_LAY_TA.wav,,5da9a1659413e4001505d7f7,2021-07-15_06h45.39.385,Agingstudy_mst,2020.2.10,Win32,60,60e99bd7bc9be7be49ca9171,60efcb4c8fc977d835343825,,,,,F,,,,,,,,,,,,,,,1,1,1.673,0,29,29,29,1,1,OLD,OLD,,,,,,,,
,,,,,,,,,,,,,,,,TestWords/RAY_PA_TI.wav,,5da9a1659413e4001505d7f7,2021-07-15_06h45.39.385,Agingstudy_mst,2020.2.10,Win32,60,60e99bd7bc9be7be49ca9171,60efcb4c8fc977d835343825,,,,,F,,,,,,,,,,,,,,,1,1,3.216,0,30,30,30,1,1,OLD,OLD,,,,,,,,
,,,,,,,,,,,,,,,,TestWords/NU_CHAY_SO.wav,,5da9a1659413e4001505d7f7,2021-07-15_06h45.39.385,Agingstudy_mst,2020.2.10,Win32,60,60e99bd7bc9be7be49ca9171,60efcb4c8fc977d835343825,,,,,F,,,,,,,,,,,,,,,2,1,0.9525,0,31,31,31,1,2,NEW,NEW,,,,,,,,
,,,,,,,,,,,,,,,,TestWords/DAI_RU_CHI.wav,,5da9a1659413e4001505d7f7,2021-07-15_06h45.39.385,Agingstudy_mst,2020.2.10,Win32,60,60e99bd7bc9be7be49ca9171,60efcb4c8fc977d835343825,,,,,F,,,,,,,,,,,,,,,1,1,1.4016,0,32,32,32,1,1,OLD,OLD,,,,,,,,
,,,,,,,,,,,,,,,,TestWords/NA_WAI_VU.wav,,5da9a1659413e4001505d7f7,2021-07-15_06h45.39.385,Agingstudy_mst,2020.2.10,Win32,60,60e99bd7bc9be7be49ca9171,60efcb4c8fc977d835343825,,,,,F,,,,,,,,,,,,,,,2,1,0.8824,0,33,33,33,1,2,NEW,SIMILAR,,,,,,,,
,,,,,,,,,,,,,,,,TestWords/GA_MU_ZI.wav,,5da9a1659413e4001505d7f7,2021-07-15_06h45.39.385,Agingstudy_mst,2020.2.10,Win32,60,60e99bd7bc9be7be49ca9171,60efcb4c8fc977d835343825,,,,,F,,,,,,,,,,,,,,,2,1,0.5338,0,34,34,34,1,2,NEW,NEW,,,,,,,,
,,,,,,,,,,,,,,,,TestWords/KAI_LAY_TA.wav,,5da9a1659413e4001505d7f7,2021-07-15_06h45.39.385,Agingstudy_mst,2020.2.10,Win32,60,60e99bd7bc9be7be49ca9171,60efcb4c8fc977d835343825,,,,,F,,,,,,,,,,,,,,,1,1,1.3548,0,35,35,35,1,1,OLD,OLD,,,,,,,,
,,,,,,,,,,,,,,,,TestWords/LI_BA_KAY.wav,,5da9a1659413e4001505d7f7,2021-07-15_06h45.39.385,Agingstudy_mst,2020.2.10,Win32,60,60e99bd7bc9be7be49ca9171,60efcb4c8fc977d835343825,,,,,F,,,,,,,,,,,,,,,2,1,1.6246,0,36,36,36,1,2,NEW,SIMILAR,,,,,,,,
,,,,,,,,,,,,,,,,TestWords/KO_SU_FAI.wav,,5da9a1659413e4001505d7f7,2021-07-15_06h45.39.385,Agingstudy_mst,2020.2.10,Win32,60,60e99bd7bc9be7be49ca9171,60efcb4c8fc977d835343825,,,,,F,,,,,,,,,,,,,,,1,1,2.6779,0,37,37,37,1,1,OLD,OLD,,,,,,,,
,,,,,,,,,,,,,,,,TestWords/RAY_PA_TI.wav,,5da9a1659413e4001505d7f7,2021-07-15_06h45.39.385,Agingstudy_mst,2020.2.10,Win32,60,60e99bd7bc9be7be49ca9171,60efcb4c8fc977d835343825,,,,,F,,,,,,,,,,,,,,,1,1,1.3699,0,38,38,38,1,1,OLD,OLD,,,,,,,,
,,,,,,,,,,,,,,,,TestWords/TAI_SA_GI.wav,,5da9a1659413e4001505d7f7,2021-07-15_06h45.39.385,Agingstudy_mst,2020.2.10,Win32,60,60e99bd7bc9be7be49ca9171,60efcb4c8fc977d835343825,,,,,F,,,,,,,,,,,,,,,2,1,1.3346,0,39,39,39,1,2,NEW,NEW,,,,,,,,
,,,,,,,,,,,,,,,,TestWords/DAI_RU_CHI.wav,,5da9a1659413e4001505d7f7,2021-07-15_06h45.39.385,Agingstudy_mst,2020.2.10,Win32,60,60e99bd7bc9be7be49ca9171,60efcb4c8fc977d835343825,,,,,F,,,,,,,,,,,,,,,2,0,1.5848,0,40,40,40,1,1,OLD,OLD,,,,,,,,
,,,,,,,,,,,,,,,,TestWords/GA_MU_ZI.wav,,5da9a1659413e4001505d7f7,2021-07-15_06h45.39.385,Agingstudy_mst,2020.2.10,Win32,60,60e99bd7bc9be7be49ca9171,60efcb4c8fc977d835343825,,,,,F,,,,,,,,,,,,,,,2,0,0.8682,0,41,41,41,1,1,OLD,OLD,,,,,,,,
,,,,,,,,,,,,,,,,TestWords/KAI_LAY_TA.wav,,5da9a1659413e4001505d7f7,2021-07-15_06h45.39.385,Agingstudy_mst,2020.2.10,Win32,60,60e99bd7bc9be7be49ca9171,60efcb4c8fc977d835343825,,,,,F,,,,,,,,,,,,,,,2,0,2.1994,0,42,42,42,1,1,OLD,OLD,,,,,,,,
,,,,,,,,,,,,,,,,TestWords/GI_SA_TAI.wav,,5da9a1659413e4001505d7f7,2021-07-15_06h45.39.385,Agingstudy_mst,2020.2.10,Win32,60,60e99bd7bc9be7be49ca9171,60efcb4c8fc977d835343825,,,,,F,,,,,,,,,,,,,,,2,1,2.0511,0,43,43,43,1,2,NEW,SIMILAR,,,,,,,,
,,,,,,,,,,,,,,,,TestWords/BA_LI_KAY.wav,,5da9a1659413e4001505d7f7,2021-07-15_06h45.39.385,Agingstudy_mst,2020.2.10,Win32,60,60e99bd7bc9be7be49ca9171,60efcb4c8fc977d835343825,,,,,F,,,,,,,,,,,,,,,2,1,1.0238,0,44,44,44,1,2,NEW,SIMILAR,,,,,,,,
,,,,,,,,,,,,,,,,TestWords/KO_SU_FAI.wav,,5da9a1659413e4001505d7f7,2021-07-15_06h45.39.385,Agingstudy_mst,2020.2.10,Win32,60,60e99bd7bc9be7be49ca9171,60efcb4c8fc977d835343825,,,,,F,,,,,,,,,,,,,,,1,1,1.0359,0,45,45,45,1,1,OLD,OLD,,,,,,,,
,,,,,,,,,,,,,,,,TestWords/RAY_PA_TI.wav,,5da9a1659413e4001505d7f7,2021-07-15_06h45.39.385,Agingstudy_mst,2020.2.10,Win32,60,60e99bd7bc9be7be49ca9171,60efcb4c8fc977d835343825,,,,,F,,,,,,,,,,,,,,,1,1,1.2243,0,46,46,46,1,1,OLD,OLD,,,,,,,,
,,,,,,,,,,,,,,,,TestWords/GA_MU_ZI.wav,,5da9a1659413e4001505d7f7,2021-07-15_06h45.39.385,Agingstudy_mst,2020.2.10,Win32,60,60e99bd7bc9be7be49ca9171,60efcb4c8fc977d835343825,,,,,F,,,,,,,,,,,,,,,2,0,1.2023,0,47,47,47,1,1,OLD,OLD,,,,,,,,
,,,,,,,,,,,,,,,,TestWords/LU_HAI_BO.wav,,5da9a1659413e4001505d7f7,2021-07-15_06h45.39.385,Agingstudy_mst,2020.2.10,Win32,60,60e99bd7bc9be7be49ca9171,60efcb4c8fc977d835343825,,,,,F,,,,,,,,,,,,,,,2,1,1.6563,0,48,48,48,1,2,NEW,NEW,,,,,,,,
,,,,,,,,,,,,,,,,TestWords/KAI_LAY_TA.wav,,5da9a1659413e4001505d7f7,2021-07-15_06h45.39.385,Agingstudy_mst,2020.2.10,Win32,60,60e99bd7bc9be7be49ca9171,60efcb4c8fc977d835343825,,,,,F,,,,,,,,,,,,,,,2,0,1.6585,0,49,49,49,1,1,OLD,OLD,,,,,,,,
,,,,,,,,,,,,,,,,TestWords/DAI_RU_CHI.wav,,5da9a1659413e4001505d7f7,2021-07-15_06h45.39.385,Agingstudy_mst,2020.2.10,Win32,60,60e99bd7bc9be7be49ca9171,60efcb4c8fc977d835343825,,,,,F,,,,,,,,,,,,,,,1,1,2.158,0,50,50,50,1,1,OLD,OLD,,,,,,,,
,,,,,,,,,,,,,,,,TestWords/GI_TAI_SA.wav,,5da9a1659413e4001505d7f7,2021-07-15_06h45.39.385,Agingstudy_mst,2020.2.10,Win32,60,60e99bd7bc9be7be49ca9171,60efcb4c8fc977d835343825,,,,,F,,,,,,,,,,,,,,,2,1,2.4526,0,51,51,51,1,2,NEW,SIMILAR,,,,,,,,
,,,,,,,,,,,,,,,,TestWords/LI_KAY_BA.wav,,5da9a1659413e4001505d7f7,2021-07-15_06h45.39.385,Agingstudy_mst,2020.2.10,Win32,60,60e99bd7bc9be7be49ca9171,60efcb4c8fc977d835343825,,,,,F,,,,,,,,,,,,,,,2,1,1.0191,0,52,52,52,1,2,NEW,SIMILAR,,,,,,,,
,,,,,,,,,,,,,,,,TestWords/RAY_PA_TI.wav,,5da9a1659413e4001505d7f7,2021-07-15_06h45.39.385,Agingstudy_mst,2020.2.10,Win32,60,60e99bd7bc9be7be49ca9171,60efcb4c8fc977d835343825,,,,,F,,,,,,,,,,,,,,,1,1,2.6707,0,53,53,53,1,1,OLD,OLD,,,,,,,,
,,,,,,,,,,,,,,,,TestWords/KO_SU_FAI.wav,,5da9a1659413e4001505d7f7,2021-07-15_06h45.39.385,Agingstudy_mst,2020.2.10,Win32,60,60e99bd7bc9be7be49ca9171,60efcb4c8fc977d835343825,,,,,F,,,,,,,,,,,,,,,1,1,0.9015,0,54,54,54,1,1,OLD,OLD,,,,,,,,
,,,,,,,,,,,,,,,,TestWords/DAY_PU_MO.wav,,5da9a1659413e4001505d7f7,2021-07-15_06h45.39.385,Agingstudy_mst,2020.2.10,Win32,60,60e99bd7bc9be7be49ca9171,60efcb4c8fc977d835343825,,,,,F,,,,,,,,,,,,,,,2,1,0.3853,0,55,55,55,1,2,NEW,NEW,,,,,,,,
,,,,,,,,,,,,,,,,TestWords/KAI_LAY_TA.wav,,5da9a1659413e4001505d7f7,2021-07-15_06h45.39.385,Agingstudy_mst,2020.2.10,Win32,60,60e99bd7bc9be7be49ca9171,60efcb4c8fc977d835343825,,,,,F,,,,,,,,,,,,,,,1,1,1.7519,0,56,56,56,1,1,OLD,OLD,,,,,,,,
,,,,,,,,,,,,,,,,TestWords/GA_MU_ZI.wav,,5da9a1659413e4001505d7f7,2021-07-15_06h45.39.385,Agingstudy_mst,2020.2.10,Win32,60,60e99bd7bc9be7be49ca9171,60efcb4c8fc977d835343825,,,,,F,,,,,,,,,,,,,,,2,0,0.9396,0,57,57,57,1,1,OLD,OLD,,,,,,,,
,,,,,,,,,,,,,,,,TestWords/CHU_LA_PAY.wav,,5da9a1659413e4001505d7f7,2021-07-15_06h45.39.385,Agingstudy_mst,2020.2.10,Win32,60,60e99bd7bc9be7be49ca9171,60efcb4c8fc977d835343825,,,,,F,,,,,,,,,,,,,,,1,0,2.3675,0,58,58,58,1,2,NEW,NEW,,,,,,,,
,,,,,,,,,,,,,,,,TestWords/DAI_RU_CHI.wav,,5da9a1659413e4001505d7f7,2021-07-15_06h45.39.385,Agingstudy_mst,2020.2.10,Win32,60,60e99bd7bc9be7be49ca9171,60efcb4c8fc977d835343825,,,,,F,,,,,,,,,,,,,,,1,1,2.8187,0,59,59,59,1,1,OLD,OLD,,,,,,,,
,,,,,,,,,,,,,,,,TestWords/SA_TAI_GI.wav,,5da9a1659413e4001505d7f7,2021-07-15_06h45.39.385,Agingstudy_mst,2020.2.10,Win32,60,60e99bd7bc9be7be49ca9171,60efcb4c8fc977d835343825,,,,,F,,,,,,,,,,,,,,,2,1,3.1348,0,60,60,60,1,2,NEW,SIMILAR,,,,,,,,
,,,,,,,,,,,,,,,,TestWords/RAY_PA_TI.wav,,5da9a1659413e4001505d7f7,2021-07-15_06h45.39.385,Agingstudy_mst,2020.2.10,Win32,60,60e99bd7bc9be7be49ca9171,60efcb4c8fc977d835343825,,,,,F,,,,,,,,,,,,,,,1,1,0.905,0,61,61,61,1,1,OLD,OLD,,,,,,,,
,,,,,,,,,,,,,,,,TestWords/KAI_LAY_TA.wav,,5da9a1659413e4001505d7f7,2021-07-15_06h45.39.385,Agingstudy_mst,2020.2.10,Win32,60,60e99bd7bc9be7be49ca9171,60efcb4c8fc977d835343825,,,,,F,,,,,,,,,,,,,,,2,0,2.71,0,62,62,62,1,1,OLD,OLD,,,,,,,,
,,,,,,,,,,,,,,,,TestWords/FU_RAI_ZO.wav,,5da9a1659413e4001505d7f7,2021-07-15_06h45.39.385,Agingstudy_mst,2020.2.10,Win32,60,60e99bd7bc9be7be49ca9171,60efcb4c8fc977d835343825,,,,,F,,,,,,,,,,,,,,,2,1,1.2505,0,63,63,63,1,2,NEW,NEW,,,,,,,,
,,,,,,,,,,,,,,,,TestWords/KO_SU_FAI.wav,,5da9a1659413e4001505d7f7,2021-07-15_06h45.39.385,Agingstudy_mst,2020.2.10,Win32,60,60e99bd7bc9be7be49ca9171,60efcb4c8fc977d835343825,,,,,F,,,,,,,,,,,,,,,1,1,2.3977,0,64,64,64,1,1,OLD,OLD,,,,,,,,
,,,,,,,,,,,,,,,,TestWords/GA_MU_ZI.wav,,5da9a1659413e4001505d7f7,2021-07-15_06h45.39.385,Agingstudy_mst,2020.2.10,Win32,60,60e99bd7bc9be7be49ca9171,60efcb4c8fc977d835343825,,,,,F,,,,,,,,,,,,,,,2,0,1.4816,0,65,65,65,1,1,OLD,OLD,,,,,,,,
,,,,,,,,,,,,,,,,TestWords/DAY_MO_PU.wav,,5da9a1659413e4001505d7f7,2021-07-15_06h45.39.385,Agingstudy_mst,2020.2.10,Win32,60,60e99bd7bc9be7be49ca9171,60efcb4c8fc977d835343825,,,,,F,,,,,,,,,,,,,,,2,1,1.0731,0,66,66,66,1,2,NEW,SIMILAR,,,,,,,,
,,,,,,,,,,,,,,,,TestWords/DAI_RU_CHI.wav,,5da9a1659413e4001505d7f7,2021-07-15_06h45.39.385,Agingstudy_mst,2020.2.10,Win32,60,60e99bd7bc9be7be49ca9171,60efcb4c8fc977d835343825,,,,,F,,,,,,,,,,,,,,,1,1,1.8358,0,67,67,67,1,1,OLD,OLD,,,,,,,,
,,,,,,,,,,,,,,,,TestWords/FI_GU_CHA.wav,,5da9a1659413e4001505d7f7,2021-07-15_06h45.39.385,Agingstudy_mst,2020.2.10,Win32,60,60e99bd7bc9be7be49ca9171,60efcb4c8fc977d835343825,,,,,F,,,,,,,,,,,,,,,1,0,1.3727,0,68,68,68,1,2,NEW,NEW,,,,,,,,
,,,,,,,,,,,,,,,,TestWords/GA_MU_ZI.wav,,5da9a1659413e4001505d7f7,2021-07-15_06h45.39.385,Agingstudy_mst,2020.2.10,Win32,60,60e99bd7bc9be7be49ca9171,60efcb4c8fc977d835343825,,,,,F,,,,,,,,,,,,,,,2,0,1.0162,0,69,69,69,1,1,OLD,OLD,,,,,,,,
,,,,,,,,,,,,,,,,TestWords/RAY_PA_TI.wav,,5da9a1659413e4001505d7f7,2021-07-15_06h45.39.385,Agingstudy_mst,2020.2.10,Win32,60,60e99bd7bc9be7be49ca9171,60efcb4c8fc977d835343825,,,,,F,,,,,,,,,,,,,,,2,0,2.4358,0,70,70,70,1,1,OLD,OLD,,,,,,,,
,,,,,,,,,,,,,,,,TestWords/SA_GI_TAI.wav,,5da9a1659413e4001505d7f7,2021-07-15_06h45.39.385,Agingstudy_mst,2020.2.10,Win32,60,60e99bd7bc9be7be49ca9171,60efcb4c8fc977d835343825,,,,,F,,,,,,,,,,,,,,,1,0,2.1522,0,71,71,71,1,2,NEW,SIMILAR,,,,,,,,
,,,,,,,,,,,,,,,,TestWords/MO_DAY_PU.wav,,5da9a1659413e4001505d7f7,2021-07-15_06h45.39.385,Agingstudy_mst,2020.2.10,Win32,60,60e99bd7bc9be7be49ca9171,60efcb4c8fc977d835343825,,,,,F,,,,,,,,,,,,,,,2,1,0.571,0,72,72,72,1,2,NEW,SIMILAR,,,,,,,,
,,,,,,,,,,,,,,,,TestWords/KO_SU_FAI.wav,,5da9a1659413e4001505d7f7,2021-07-15_06h45.39.385,Agingstudy_mst,2020.2.10,Win32,60,60e99bd7bc9be7be49ca9171,60efcb4c8fc977d835343825,,,,,F,,,,,,,,,,,,,,,2,0,2.0687,0,73,73,73,1,1,OLD,OLD,,,,,,,,
,,,,,,,,,,,,,,,,TestWords/RAI_ZO_FU.wav,,5da9a1659413e4001505d7f7,2021-07-15_06h45.39.385,Agingstudy_mst,2020.2.10,Win32,60,60e99bd7bc9be7be49ca9171,60efcb4c8fc977d835343825,,,,,F,,,,,,,,,,,,,,,2,1,0.4852,0,74,74,74,1,2,NEW,SIMILAR,,,,,,,,
,,,,,,,,,,,,,,,,TestWords/GA_MU_ZI.wav,,5da9a1659413e4001505d7f7,2021-07-15_06h45.39.385,Agingstudy_mst,2020.2.10,Win32,60,60e99bd7bc9be7be49ca9171,60efcb4c8fc977d835343825,,,,,F,,,,,,,,,,,,,,,1,1,3.0683,0,75,75,75,1,1,OLD,OLD,,,,,,,,
,,,,,,,,,,,,,,,,TestWords/DAI_RU_CHI.wav,,5da9a1659413e4001505d7f7,2021-07-15_06h45.39.385,Agingstudy_mst,2020.2.10,Win32,60,60e99bd7bc9be7be49ca9171,60efcb4c8fc977d835343825,,,,,F,,,,,,,,,,,,,,,1,1,2.6387,0,76,76,76,1,1,OLD,OLD,,,,,,,,
,,,,,,,,,,,,,,,,TestWords/TAI_GI_SA.wav,,5da9a1659413e4001505d7f7,2021-07-15_06h45.39.385,Agingstudy_mst,2020.2.10,Win32,60,60e99bd7bc9be7be49ca9171,60efcb4c8fc977d835343825,,,,,F,,,,,,,,,,,,,,,1,0,1.6516,0,77,77,77,1,2,NEW,SIMILAR,,,,,,,,
,,,,,,,,,,,,,,,,TestWords/RAY_PA_TI.wav,,5da9a1659413e4001505d7f7,2021-07-15_06h45.39.385,Agingstudy_mst,2020.2.10,Win32,60,60e99bd7bc9be7be49ca9171,60efcb4c8fc977d835343825,,,,,F,,,,,,,,,,,,,,,2,0,1.9527,0,78,78,78,1,1,OLD,OLD,,,,,,,,
,,,,,,,,,,,,,,,,TestWords/PU_DAY_MO.wav,,5da9a1659413e4001505d7f7,2021-07-15_06h45.39.385,Agingstudy_mst,2020.2.10,Win32,60,60e99bd7bc9be7be49ca9171,60efcb4c8fc977d835343825,,,,,F,,,,,,,,,,,,,,,2,1,2.7517,0,79,79,79,1,2,NEW,SIMILAR,,,,,,,,
,,,,,,,,,,,,,,,,TestWords/KO_SU_FAI.wav,,5da9a1659413e4001505d7f7,2021-07-15_06h45.39.385,Agingstudy_mst,2020.2.10,Win32,60,60e99bd7bc9be7be49ca9171,60efcb4c8fc977d835343825,,,,,F,,,,,,,,,,,,,,,1,1,1.0348,0,80,80,80,1,1,OLD,OLD,,,,,,,,
,,,,,,,,,,,,,,,,TestWords/ZO_RAI_FU.wav,,5da9a1659413e4001505d7f7,2021-07-15_06h45.39.385,Agingstudy_mst,2020.2.10,Win32,60,60e99bd7bc9be7be49ca9171,60efcb4c8fc977d835343825,,,,,F,,,,,,,,,,,,,,,2,1,0.8864,0,81,81,81,1,2,NEW,SIMILAR,,,,,,,,
,,,,,,,,,,,,,,,,TestWords/GA_MU_ZI.wav,,5da9a1659413e4001505d7f7,2021-07-15_06h45.39.385,Agingstudy_mst,2020.2.10,Win32,60,60e99bd7bc9be7be49ca9171,60efcb4c8fc977d835343825,,,,,F,,,,,,,,,,,,,,,2,0,2.9058,0,82,82,82,1,1,OLD,OLD,,,,,,,,
,,,,,,,,,,,,,,,,TestWords/RAY_PA_TI.wav,,5da9a1659413e4001505d7f7,2021-07-15_06h45.39.385,Agingstudy_mst,2020.2.10,Win32,60,60e99bd7bc9be7be49ca9171,60efcb4c8fc977d835343825,,,,,F,,,,,,,,,,,,,,,2,0,1.904,0,83,83,83,1,1,OLD,OLD,,,,,,,,
,,,,,,,,,,,,,,,,TestWords/DAI_RU_CHI.wav,,5da9a1659413e4001505d7f7,2021-07-15_06h45.39.385,Agingstudy_mst,2020.2.10,Win32,60,60e99bd7bc9be7be49ca9171,60efcb4c8fc977d835343825,,,,,F,,,,,,,,,,,,,,,1,1,1.3523,0,84,84,84,1,1,OLD,OLD,,,,,,,,
,,,,,,,,,,,,,,,,TestWords/GA_MU_ZI.wav,,5da9a1659413e4001505d7f7,2021-07-15_06h45.39.385,Agingstudy_mst,2020.2.10,Win32,60,60e99bd7bc9be7be49ca9171,60efcb4c8fc977d835343825,,,,,F,,,,,,,,,,,,,,,2,0,4.6542,0,85,85,85,1,1,OLD,OLD,,,,,,,,
,,,,,,,,,,,,,,,,TestWords/NO_WA_BAY.wav,,5da9a1659413e4001505d7f7,2021-07-15_06h45.39.385,Agingstudy_mst,2020.2.10,Win32,60,60e99bd7bc9be7be49ca9171,60efcb4c8fc977d835343825,,,,,F,,,,,,,,,,,,,,,2,1,0.3525,0,86,86,86,1,2,NEW,NEW,,,,,,,,
,,,,,,,,,,,,,,,,TestWords/FU_ZO_RAI.wav,,5da9a1659413e4001505d7f7,2021-07-15_06h45.39.385,Agingstudy_mst,2020.2.10,Win32,60,60e99bd7bc9be7be49ca9171,60efcb4c8fc977d835343825,,,,,F,,,,,,,,,,,,,,,2,1,1.7191,0,87,87,87,1,2,NEW,SIMILAR,,,,,,,,
,,,,,,,,,,,,,,,,TestWords/KO_SU_FAI.wav,,5da9a1659413e4001505d7f7,2021-07-15_06h45.39.385,Agingstudy_mst,2020.2.10,Win32,60,60e99bd7bc9be7be49ca9171,60efcb4c8fc977d835343825,,,,,F,,,,,,,,,,,,,,,1,1,2.4186,0,88,88,88,1,1,OLD,OLD,,,,,,,,
,,,,,,,,,,,,,,,,TestWords/PU_MO_DAY.wav,,5da9a1659413e4001505d7f7,2021-07-15_06h45.39.385,Agingstudy_mst,2020.2.10,Win32,60,60e99bd7bc9be7be49ca9171,60efcb4c8fc977d835343825,,,,,F,,,,,,,,,,,,,,,2,1,1.8549,0,89,89,89,1,2,NEW,SIMILAR,,,,,,,,
,,,,,,,,,,,,,,,,TestWords/RAY_PA_TI.wav,,5da9a1659413e4001505d7f7,2021-07-15_06h45.39.385,Agingstudy_mst,2020.2.10,Win32,60,60e99bd7bc9be7be49ca9171,60efcb4c8fc977d835343825,,,,,F,,,,,,,,,,,,,,,2,0,0.8991,0,90,90,90,1,1,OLD,OLD,,,,,,,,
,,,,,,,,,,,,,,,,TestWords/DAI_RU_CHI.wav,,5da9a1659413e4001505d7f7,2021-07-15_06h45.39.385,Agingstudy_mst,2020.2.10,Win32,60,60e99bd7bc9be7be49ca9171,60efcb4c8fc977d835343825,,,,,F,,,,,,,,,,,,,,,2,0,2.3019,0,91,91,91,1,1,OLD,OLD,,,,,,,,
,,,,,,,,,,,,,,,,TestWords/RAI_FU_ZO.wav,,5da9a1659413e4001505d7f7,2021-07-15_06h45.39.385,Agingstudy_mst,2020.2.10,Win32,60,60e99bd7bc9be7be49ca9171,60efcb4c8fc977d835343825,,,,,F,,,,,,,,,,,,,,,2,1,2.7462,0,92,92,92,1,2,NEW,SIMILAR,,,,,,,,
,,,,,,,,,,,,,,,,TestWords/GA_MU_ZI.wav,,5da9a1659413e4001505d7f7,2021-07-15_06h45.39.385,Agingstudy_mst,2020.2.10,Win32,60,60e99bd7bc9be7be49ca9171,60efcb4c8fc977d835343825,,,,,F,,,,,,,,,,,,,,,1,1,2.2176,0,93,93,93,1,1,OLD,OLD,,,,,,,,
,,,,,,,,,,,,,,,,TestWords/HA_SI_JAI.wav,,5da9a1659413e4001505d7f7,2021-07-15_06h45.39.385,Agingstudy_mst,2020.2.10,Win32,60,60e99bd7bc9be7be49ca9171,60efcb4c8fc977d835343825,,,,,F,,,,,,,,,,,,,,,2,1,0.7158,0,94,94,94,1,2,NEW,NEW,,,,,,,,
,,,,,,,,,,,,,,,,TestWords/MO_PU_DAY.wav,,5da9a1659413e4001505d7f7,2021-07-15_06h45.39.385,Agingstudy_mst,2020.2.10,Win32,60,60e99bd7bc9be7be49ca9171,60efcb4c8fc977d835343825,,,,,F,,,,,,,,,,,,,,,2,1,2.4021,0,95,95,95,1,2,NEW,SIMILAR,,,,,,,,
,,,,,,,,,,,,,,,,TestWords/LA_ZAY_CHAI.wav,,5da9a1659413e4001505d7f7,2021-07-15_06h45.39.385,Agingstudy_mst,2020.2.10,Win32,60,60e99bd7bc9be7be49ca9171,60efcb4c8fc977d835343825,,,,,F,,,,,,,,,,,,,,,2,1,1.3866,0,96,96,96,1,2,NEW,NEW,,,,,,,,
,,,,,,,,,,,,,,,,TestWords/GA_MU_ZI.wav,,5da9a1659413e4001505d7f7,2021-07-15_06h45.39.385,Agingstudy_mst,2020.2.10,Win32,60,60e99bd7bc9be7be49ca9171,60efcb4c8fc977d835343825,,,,,F,,,,,,,,,,,,,,,2,0,2.1546,0,97,97,97,1,1,OLD,OLD,,,,,,,,
,,,,,,,,,,,,,,,,TestWords/ZO_FU_RAI.wav,,5da9a1659413e4001505d7f7,2021-07-15_06h45.39.385,Agingstudy_mst,2020.2.10,Win32,60,60e99bd7bc9be7be49ca9171,60efcb4c8fc977d835343825,,,,,F,,,,,,,,,,,,,,,2,1,1.5851,0,98,98,98,1,2,NEW,SIMILAR,,,,,,,,
,,,,,,,,,,,,,,,,TestWords/WAI_RO_JU.wav,,5da9a1659413e4001505d7f7,2021-07-15_06h45.39.385,Agingstudy_mst,2020.2.10,Win32,60,60e99bd7bc9be7be49ca9171,60efcb4c8fc977d835343825,,,,,F,,,,,,,,,,,,,,,2,1,1.1854,0,99,99,99,1,2,NEW,NEW,,,,,,,,
,,,,,,,,,,,,,,,,,,5da9a1659413e4001505d7f7,2021-07-15_06h45.39.385,Agingstudy_mst,2020.2.10,Win32,60,60e99bd7bc9be7be49ca9171,60efcb4c8fc977d835343825,,,,,,,,,,,,,,,,,,,,,,,,,,,,,,,0,0,0,0,1,,,
,,,,,,,,,,,,,,,,,,5da9a1659413e4001505d7f7,2021-07-15_06h45.39.385,Agingstudy_mst,2020.2.10,Win32,60,60e99bd7bc9be7be49ca9171,60efcb4c8fc977d835343825,,,,,,,,,,,,,,,,,,,,,,,,,,,,,,,,,,,,return,87.8899,"I heard everything, but was the sounds from part 1?"
