Welcome0Continue.keys,Welcome0Continue.rt,SoundCheckBegin.keys,SoundCheckBegin.rt,SoundCheckEndKey.keys,SoundCheckEndKey.rt,HeadphoneContinueKey.keys,HeadphoneContinueKey.rt,CheckResp.keys,CheckResp.corr,CheckResp.rt,HeadphoneLoop.thisRepN,HeadphoneLoop.thisTrialN,HeadphoneLoop.thisN,HeadphoneLoop.thisIndex,HeadphoneLoop.ran,File,Correct,participant,date,expName,psychopyVersion,OS,frameRate,ContinueKey8.keys,ContinueKey8.rt,MSTWelcomeContKey.keys,MSTWelcomeContKey.rt,Condition,MSTTrainIntroKey.keys,MSTTrainIntroKey.rt,MSTTrainKeys.keys,MSTTrainKeys.corr,MSTTrainKeys.rt,MSTTrainLoop.thisRepN,MSTTrainLoop.thisTrialN,MSTTrainLoop.thisN,MSTTrainLoop.thisIndex,MSTTrainLoop.ran,SoundFile,Type,MSTTestBeginKey.keys,MSTTestBeginKey.rt,MST_resp.keys,MST_resp.corr,MST_resp.rt,MSTPlayLoop.thisRepN,MSTPlayLoop.thisTrialN,MSTPlayLoop.thisN,MSTPlayLoop.thisIndex,MSTPlayLoop.ran,WordCorrect,Correct_type,WordType,MSTLoop.thisRepN,MSTLoop.thisTrialN,MSTLoop.thisN,MSTLoop.thisIndex,MSTLoop.ran,EndAllKey.keys,EndAllKey.rt,FeedbackResp.text
space,22.79276,space,9.148975,space,11.658955,space,16.371365,2,1,3.19778,0,0,0,2,1,Headphone/t2_1.wav,2,5ded58a8217786000b2b2511,2021-07-08_19h21.57.044,Agingstudy,2020.2.10,Win32,60,,,,,,,,,,,,,,,,,,,,,,,,,,,,,,,,,,,,,,
,,,,,,,,1,1,1.66792,0,1,1,0,1,Headphone/t1_1.wav,1,5ded58a8217786000b2b2511,2021-07-08_19h21.57.044,Agingstudy,2020.2.10,Win32,60,,,,,,,,,,,,,,,,,,,,,,,,,,,,,,,,,,,,,,
,,,,,,,,3,1,1.9337,0,2,2,4,1,Headphone/t3_1.wav,3,5ded58a8217786000b2b2511,2021-07-08_19h21.57.044,Agingstudy,2020.2.10,Win32,60,,,,,,,,,,,,,,,,,,,,,,,,,,,,,,,,,,,,,,
,,,,,,,,1,1,1.201615,0,3,3,1,1,Headphone/t1_2.wav,1,5ded58a8217786000b2b2511,2021-07-08_19h21.57.044,Agingstudy,2020.2.10,Win32,60,,,,,,,,,,,,,,,,,,,,,,,,,,,,,,,,,,,,,,
,,,,,,,,2,1,1.16829,0,4,4,3,1,Headphone/t2_2.wav,2,5ded58a8217786000b2b2511,2021-07-08_19h21.57.044,Agingstudy,2020.2.10,Win32,60,,,,,,,,,,,,,,,,,,,,,,,,,,,,,,,,,,,,,,
,,,,,,,,3,1,1.78397,0,5,5,5,1,Headphone/t3_2.wav,3,5ded58a8217786000b2b2511,2021-07-08_19h21.57.044,Agingstudy,2020.2.10,Win32,60,,,,,,,,,,,,,,,,,,,,,,,,,,,,,,,,,,,,,,
,,,,,,,,,,,,,,,,,2,5ded58a8217786000b2b2511,2021-07-08_19h21.57.044,Agingstudy,2020.2.10,Win32,60,space,39.96131,space,10.56482,1,space,5.021485,2,1,9.429375,0,0,0,0,1,Training/FO_YI_LAY.wav,NEW,,,,,,,,,,,,,,,,,,,,,
,,,,,,,,,,,,,,,,,1,5ded58a8217786000b2b2511,2021-07-08_19h21.57.044,Agingstudy,2020.2.10,Win32,60,,,,,,,,1,1,3.847465,0,1,1,1,1,Training/FO_YI_LAY.wav,OLD,,,,,,,,,,,,,,,,,,,,,
,,,,,,,,,,,,,,,,,2,5ded58a8217786000b2b2511,2021-07-08_19h21.57.044,Agingstudy,2020.2.10,Win32,60,,,,,,,,2,1,1.925825,0,2,2,2,1,Training/YO_BU_JAY.wav,NEW,,,,,,,,,,,,,,,,,,,,,
,,,,,,,,,,,,,,,,,2,5ded58a8217786000b2b2511,2021-07-08_19h21.57.044,Agingstudy,2020.2.10,Win32,60,,,,,,,,2,1,1.579975,0,3,3,3,1,Training/JAY_YO_BU.wav,SIMILAR,,,,,,,,,,,,,,,,,,,,,
,,,,,,,,,,,,,,,,,1,5ded58a8217786000b2b2511,2021-07-08_19h21.57.044,Agingstudy,2020.2.10,Win32,60,,,,,,,,1,1,8.025935,0,4,4,4,1,Training/FO_YI_LAY.wav,OLD,,,,,,,,,,,,,,,,,,,,,
,,,,,,,,,,,,,,,,TestWords/HO_NAY_VA.wav,,5ded58a8217786000b2b2511,2021-07-08_19h21.57.044,Agingstudy,2020.2.10,Win32,60,,,,,E,,,,,,,,,,,,,space,13.296445,2,1,2.966795,0,0,0,0,1,2,NEW,NEW,,,,,,,,
,,,,,,,,,,,,,,,,TestWords/LU_HAI_BO.wav,,5ded58a8217786000b2b2511,2021-07-08_19h21.57.044,Agingstudy,2020.2.10,Win32,60,,,,,E,,,,,,,,,,,,,,,2,1,2.735035,0,1,1,1,1,2,NEW,NEW,,,,,,,,
,,,,,,,,,,,,,,,,TestWords/GA_MU_ZI.wav,,5ded58a8217786000b2b2511,2021-07-08_19h21.57.044,Agingstudy,2020.2.10,Win32,60,,,,,E,,,,,,,,,,,,,,,2,1,1.62525,0,2,2,2,1,2,NEW,NEW,,,,,,,,
,,,,,,,,,,,,,,,,TestWords/BA_KAY_LI.wav,,5ded58a8217786000b2b2511,2021-07-08_19h21.57.044,Agingstudy,2020.2.10,Win32,60,,,,,E,,,,,,,,,,,,,,,2,1,1.79948,0,3,3,3,1,2,NEW,NEW,,,,,,,,
,,,,,,,,,,,,,,,,TestWords/DA_CHU_VAI.wav,,5ded58a8217786000b2b2511,2021-07-08_19h21.57.044,Agingstudy,2020.2.10,Win32,60,,,,,E,,,,,,,,,,,,,,,2,1,1.800165,0,4,4,4,1,2,NEW,NEW,,,,,,,,
,,,,,,,,,,,,,,,,TestWords/CHU_LA_PAY.wav,,5ded58a8217786000b2b2511,2021-07-08_19h21.57.044,Agingstudy,2020.2.10,Win32,60,,,,,E,,,,,,,,,,,,,,,2,1,2.753895,0,5,5,5,1,2,NEW,NEW,,,,,,,,
,,,,,,,,,,,,,,,,TestWords/RAY_PA_TI.wav,,5ded58a8217786000b2b2511,2021-07-08_19h21.57.044,Agingstudy,2020.2.10,Win32,60,,,,,E,,,,,,,,,,,,,,,2,1,1.81671,0,6,6,6,1,2,NEW,NEW,,,,,,,,
,,,,,,,,,,,,,,,,TestWords/WAI_VU_NA.wav,,5ded58a8217786000b2b2511,2021-07-08_19h21.57.044,Agingstudy,2020.2.10,Win32,60,,,,,E,,,,,,,,,,,,,,,2,1,2.105565,0,7,7,7,1,2,NEW,NEW,,,,,,,,
,,,,,,,,,,,,,,,,TestWords/VAI_HO_LA.wav,,5ded58a8217786000b2b2511,2021-07-08_19h21.57.044,Agingstudy,2020.2.10,Win32,60,,,,,E,,,,,,,,,,,,,,,2,1,1.2467,0,8,8,8,1,2,NEW,NEW,,,,,,,,
,,,,,,,,,,,,,,,,TestWords/KAY_LI_BA.wav,,5ded58a8217786000b2b2511,2021-07-08_19h21.57.044,Agingstudy,2020.2.10,Win32,60,,,,,E,,,,,,,,,,,,,,,2,1,2.47311,0,9,9,9,1,2,NEW,SIMILAR,,,,,,,,
,,,,,,,,,,,,,,,,TestWords/GA_MU_ZI.wav,,5ded58a8217786000b2b2511,2021-07-08_19h21.57.044,Agingstudy,2020.2.10,Win32,60,,,,,E,,,,,,,,,,,,,,,2,0,1.23766,0,10,10,10,1,1,OLD,OLD,,,,,,,,
,,,,,,,,,,,,,,,,TestWords/LA_ZAY_CHAI.wav,,5ded58a8217786000b2b2511,2021-07-08_19h21.57.044,Agingstudy,2020.2.10,Win32,60,,,,,E,,,,,,,,,,,,,,,2,1,1.40038,0,11,11,11,1,2,NEW,NEW,,,,,,,,
,,,,,,,,,,,,,,,,TestWords/RAY_PA_TI.wav,,5ded58a8217786000b2b2511,2021-07-08_19h21.57.044,Agingstudy,2020.2.10,Win32,60,,,,,E,,,,,,,,,,,,,,,1,1,2.72126,0,12,12,12,1,1,OLD,OLD,,,,,,,,
,,,,,,,,,,,,,,,,TestWords/WAI_NA_VU.wav,,5ded58a8217786000b2b2511,2021-07-08_19h21.57.044,Agingstudy,2020.2.10,Win32,60,,,,,E,,,,,,,,,,,,,,,2,1,1.050565,0,13,13,13,1,2,NEW,SIMILAR,,,,,,,,
,,,,,,,,,,,,,,,,TestWords/DAI_RU_CHI.wav,,5ded58a8217786000b2b2511,2021-07-08_19h21.57.044,Agingstudy,2020.2.10,Win32,60,,,,,E,,,,,,,,,,,,,,,2,1,0.96797,0,14,14,14,1,2,NEW,NEW,,,,,,,,
,,,,,,,,,,,,,,,,TestWords/KAY_BA_LI.wav,,5ded58a8217786000b2b2511,2021-07-08_19h21.57.044,Agingstudy,2020.2.10,Win32,60,,,,,E,,,,,,,,,,,,,,,2,1,2.513545,0,15,15,15,1,2,NEW,SIMILAR,,,,,,,,
,,,,,,,,,,,,,,,,TestWords/GA_MU_ZI.wav,,5ded58a8217786000b2b2511,2021-07-08_19h21.57.044,Agingstudy,2020.2.10,Win32,60,,,,,E,,,,,,,,,,,,,,,2,0,1.083795,0,16,16,16,1,1,OLD,OLD,,,,,,,,
,,,,,,,,,,,,,,,,TestWords/VU_NA_WAI.wav,,5ded58a8217786000b2b2511,2021-07-08_19h21.57.044,Agingstudy,2020.2.10,Win32,60,,,,,E,,,,,,,,,,,,,,,2,1,1.23367,0,17,17,17,1,2,NEW,SIMILAR,,,,,,,,
,,,,,,,,,,,,,,,,TestWords/RAY_PA_TI.wav,,5ded58a8217786000b2b2511,2021-07-08_19h21.57.044,Agingstudy,2020.2.10,Win32,60,,,,,E,,,,,,,,,,,,,,,1,1,2.639855,0,18,18,18,1,1,OLD,OLD,,,,,,,,
,,,,,,,,,,,,,,,,TestWords/LI_BA_KAY.wav,,5ded58a8217786000b2b2511,2021-07-08_19h21.57.044,Agingstudy,2020.2.10,Win32,60,,,,,E,,,,,,,,,,,,,,,2,1,2.90992,0,19,19,19,1,2,NEW,SIMILAR,,,,,,,,
,,,,,,,,,,,,,,,,TestWords/DAY_MO_PU.wav,,5ded58a8217786000b2b2511,2021-07-08_19h21.57.044,Agingstudy,2020.2.10,Win32,60,,,,,E,,,,,,,,,,,,,,,2,1,1.011275,0,20,20,20,1,2,NEW,NEW,,,,,,,,
,,,,,,,,,,,,,,,,TestWords/DAI_RU_CHI.wav,,5ded58a8217786000b2b2511,2021-07-08_19h21.57.044,Agingstudy,2020.2.10,Win32,60,,,,,E,,,,,,,,,,,,,,,2,0,2.381985,0,21,21,21,1,1,OLD,OLD,,,,,,,,
,,,,,,,,,,,,,,,,TestWords/NU_CHAY_SO.wav,,5ded58a8217786000b2b2511,2021-07-08_19h21.57.044,Agingstudy,2020.2.10,Win32,60,,,,,E,,,,,,,,,,,,,,,2,1,0.981035,0,22,22,22,1,2,NEW,NEW,,,,,,,,
,,,,,,,,,,,,,,,,TestWords/VU_WAI_NA.wav,,5ded58a8217786000b2b2511,2021-07-08_19h21.57.044,Agingstudy,2020.2.10,Win32,60,,,,,E,,,,,,,,,,,,,,,2,1,2.24984,0,23,23,23,1,2,NEW,SIMILAR,,,,,,,,
,,,,,,,,,,,,,,,,TestWords/GA_MU_ZI.wav,,5ded58a8217786000b2b2511,2021-07-08_19h21.57.044,Agingstudy,2020.2.10,Win32,60,,,,,E,,,,,,,,,,,,,,,2,0,1.52339,0,24,24,24,1,1,OLD,OLD,,,,,,,,
,,,,,,,,,,,,,,,,TestWords/RAY_PA_TI.wav,,5ded58a8217786000b2b2511,2021-07-08_19h21.57.044,Agingstudy,2020.2.10,Win32,60,,,,,E,,,,,,,,,,,,,,,1,1,0.631985,0,25,25,25,1,1,OLD,OLD,,,,,,,,
,,,,,,,,,,,,,,,,TestWords/KAI_LAY_TA.wav,,5ded58a8217786000b2b2511,2021-07-08_19h21.57.044,Agingstudy,2020.2.10,Win32,60,,,,,E,,,,,,,,,,,,,,,2,1,1.186325,0,26,26,26,1,2,NEW,NEW,,,,,,,,
,,,,,,,,,,,,,,,,TestWords/TAI_SA_GI.wav,,5ded58a8217786000b2b2511,2021-07-08_19h21.57.044,Agingstudy,2020.2.10,Win32,60,,,,,E,,,,,,,,,,,,,,,2,1,0.786515,0,27,27,27,1,2,NEW,NEW,,,,,,,,
,,,,,,,,,,,,,,,,TestWords/BA_LI_KAY.wav,,5ded58a8217786000b2b2511,2021-07-08_19h21.57.044,Agingstudy,2020.2.10,Win32,60,,,,,E,,,,,,,,,,,,,,,1,0,2.34924,0,28,28,28,1,2,NEW,SIMILAR,,,,,,,,
,,,,,,,,,,,,,,,,TestWords/KO_SU_FAI.wav,,5ded58a8217786000b2b2511,2021-07-08_19h21.57.044,Agingstudy,2020.2.10,Win32,60,,,,,E,,,,,,,,,,,,,,,2,1,1.38335,0,29,29,29,1,2,NEW,NEW,,,,,,,,
,,,,,,,,,,,,,,,,TestWords/MO_DAY_PU.wav,,5ded58a8217786000b2b2511,2021-07-08_19h21.57.044,Agingstudy,2020.2.10,Win32,60,,,,,E,,,,,,,,,,,,,,,1,0,3.248405,0,30,30,30,1,2,NEW,SIMILAR,,,,,,,,
,,,,,,,,,,,,,,,,TestWords/DAI_RU_CHI.wav,,5ded58a8217786000b2b2511,2021-07-08_19h21.57.044,Agingstudy,2020.2.10,Win32,60,,,,,E,,,,,,,,,,,,,,,1,1,1.217245,0,31,31,31,1,1,OLD,OLD,,,,,,,,
,,,,,,,,,,,,,,,,TestWords/NA_VU_WAI.wav,,5ded58a8217786000b2b2511,2021-07-08_19h21.57.044,Agingstudy,2020.2.10,Win32,60,,,,,E,,,,,,,,,,,,,,,2,1,1.28416,0,32,32,32,1,2,NEW,SIMILAR,,,,,,,,
,,,,,,,,,,,,,,,,TestWords/KAI_LAY_TA.wav,,5ded58a8217786000b2b2511,2021-07-08_19h21.57.044,Agingstudy,2020.2.10,Win32,60,,,,,E,,,,,,,,,,,,,,,2,0,1.896985,0,33,33,33,1,1,OLD,OLD,,,,,,,,
,,,,,,,,,,,,,,,,TestWords/RAY_PA_TI.wav,,5ded58a8217786000b2b2511,2021-07-08_19h21.57.044,Agingstudy,2020.2.10,Win32,60,,,,,E,,,,,,,,,,,,,,,1,1,0.487465,0,34,34,34,1,1,OLD,OLD,,,,,,,,
,,,,,,,,,,,,,,,,TestWords/GA_MU_ZI.wav,,5ded58a8217786000b2b2511,2021-07-08_19h21.57.044,Agingstudy,2020.2.10,Win32,60,,,,,E,,,,,,,,,,,,,,,2,0,1.721445,0,35,35,35,1,1,OLD,OLD,,,,,,,,
,,,,,,,,,,,,,,,,TestWords/GI_SA_TAI.wav,,5ded58a8217786000b2b2511,2021-07-08_19h21.57.044,Agingstudy,2020.2.10,Win32,60,,,,,E,,,,,,,,,,,,,,,2,1,2.79808,0,36,36,36,1,2,NEW,SIMILAR,,,,,,,,
,,,,,,,,,,,,,,,,TestWords/KO_SU_FAI.wav,,5ded58a8217786000b2b2511,2021-07-08_19h21.57.044,Agingstudy,2020.2.10,Win32,60,,,,,E,,,,,,,,,,,,,,,2,0,2.103505,0,37,37,37,1,1,OLD,OLD,,,,,,,,
,,,,,,,,,,,,,,,,TestWords/LI_KAY_BA.wav,,5ded58a8217786000b2b2511,2021-07-08_19h21.57.044,Agingstudy,2020.2.10,Win32,60,,,,,E,,,,,,,,,,,,,,,2,1,2.550195,0,38,38,38,1,2,NEW,SIMILAR,,,,,,,,
,,,,,,,,,,,,,,,,TestWords/NA_WAI_VU.wav,,5ded58a8217786000b2b2511,2021-07-08_19h21.57.044,Agingstudy,2020.2.10,Win32,60,,,,,E,,,,,,,,,,,,,,,2,1,1.31852,0,39,39,39,1,2,NEW,SIMILAR,,,,,,,,
,,,,,,,,,,,,,,,,TestWords/KAI_LAY_TA.wav,,5ded58a8217786000b2b2511,2021-07-08_19h21.57.044,Agingstudy,2020.2.10,Win32,60,,,,,E,,,,,,,,,,,,,,,1,1,0.91744,0,40,40,40,1,1,OLD,OLD,,,,,,,,
,,,,,,,,,,,,,,,,TestWords/RAY_PA_TI.wav,,5ded58a8217786000b2b2511,2021-07-08_19h21.57.044,Agingstudy,2020.2.10,Win32,60,,,,,E,,,,,,,,,,,,,,,1,1,1.315915,0,41,41,41,1,1,OLD,OLD,,,,,,,,
,,,,,,,,,,,,,,,,TestWords/PU_DAY_MO.wav,,5ded58a8217786000b2b2511,2021-07-08_19h21.57.044,Agingstudy,2020.2.10,Win32,60,,,,,E,,,,,,,,,,,,,,,2,1,0.933965,0,42,42,42,1,2,NEW,SIMILAR,,,,,,,,
,,,,,,,,,,,,,,,,TestWords/GA_MU_ZI.wav,,5ded58a8217786000b2b2511,2021-07-08_19h21.57.044,Agingstudy,2020.2.10,Win32,60,,,,,E,,,,,,,,,,,,,,,2,0,1.217945,0,43,43,43,1,1,OLD,OLD,,,,,,,,
,,,,,,,,,,,,,,,,TestWords/DAI_RU_CHI.wav,,5ded58a8217786000b2b2511,2021-07-08_19h21.57.044,Agingstudy,2020.2.10,Win32,60,,,,,E,,,,,,,,,,,,,,,2,0,1.607605,0,44,44,44,1,1,OLD,OLD,,,,,,,,
,,,,,,,,,,,,,,,,TestWords/GI_TAI_SA.wav,,5ded58a8217786000b2b2511,2021-07-08_19h21.57.044,Agingstudy,2020.2.10,Win32,60,,,,,E,,,,,,,,,,,,,,,2,1,1.05756,0,45,45,45,1,2,NEW,SIMILAR,,,,,,,,
,,,,,,,,,,,,,,,,TestWords/KO_SU_FAI.wav,,5ded58a8217786000b2b2511,2021-07-08_19h21.57.044,Agingstudy,2020.2.10,Win32,60,,,,,E,,,,,,,,,,,,,,,2,0,0.589725,0,46,46,46,1,1,OLD,OLD,,,,,,,,
,,,,,,,,,,,,,,,,TestWords/WAI_RO_JU.wav,,5ded58a8217786000b2b2511,2021-07-08_19h21.57.044,Agingstudy,2020.2.10,Win32,60,,,,,E,,,,,,,,,,,,,,,2,1,0.518755,0,47,47,47,1,2,NEW,NEW,,,,,,,,
,,,,,,,,,,,,,,,,TestWords/KAI_LAY_TA.wav,,5ded58a8217786000b2b2511,2021-07-08_19h21.57.044,Agingstudy,2020.2.10,Win32,60,,,,,E,,,,,,,,,,,,,,,1,1,0.38218,0,48,48,48,1,1,OLD,OLD,,,,,,,,
,,,,,,,,,,,,,,,,TestWords/DAI_RU_CHI.wav,,5ded58a8217786000b2b2511,2021-07-08_19h21.57.044,Agingstudy,2020.2.10,Win32,60,,,,,E,,,,,,,,,,,,,,,1,1,2.13351,0,49,49,49,1,1,OLD,OLD,,,,,,,,
,,,,,,,,,,,,,,,,TestWords/RAY_PA_TI.wav,,5ded58a8217786000b2b2511,2021-07-08_19h21.57.044,Agingstudy,2020.2.10,Win32,60,,,,,E,,,,,,,,,,,,,,,1,1,0.69753,0,50,50,50,1,1,OLD,OLD,,,,,,,,
,,,,,,,,,,,,,,,,TestWords/SA_TAI_GI.wav,,5ded58a8217786000b2b2511,2021-07-08_19h21.57.044,Agingstudy,2020.2.10,Win32,60,,,,,E,,,,,,,,,,,,,,,2,1,0.920755,0,51,51,51,1,2,NEW,SIMILAR,,,,,,,,
,,,,,,,,,,,,,,,,TestWords/KO_SU_FAI.wav,,5ded58a8217786000b2b2511,2021-07-08_19h21.57.044,Agingstudy,2020.2.10,Win32,60,,,,,E,,,,,,,,,,,,,,,2,0,1.30224,0,52,52,52,1,1,OLD,OLD,,,,,,,,
,,,,,,,,,,,,,,,,TestWords/PU_MO_DAY.wav,,5ded58a8217786000b2b2511,2021-07-08_19h21.57.044,Agingstudy,2020.2.10,Win32,60,,,,,E,,,,,,,,,,,,,,,1,0,2.40068,0,53,53,53,1,2,NEW,SIMILAR,,,,,,,,
,,,,,,,,,,,,,,,,TestWords/GA_MU_ZI.wav,,5ded58a8217786000b2b2511,2021-07-08_19h21.57.044,Agingstudy,2020.2.10,Win32,60,,,,,E,,,,,,,,,,,,,,,2,0,1.351305,0,54,54,54,1,1,OLD,OLD,,,,,,,,
,,,,,,,,,,,,,,,,TestWords/KAI_LAY_TA.wav,,5ded58a8217786000b2b2511,2021-07-08_19h21.57.044,Agingstudy,2020.2.10,Win32,60,,,,,E,,,,,,,,,,,,,,,1,1,0.786005,0,55,55,55,1,1,OLD,OLD,,,,,,,,
,,,,,,,,,,,,,,,,TestWords/SA_GI_TAI.wav,,5ded58a8217786000b2b2511,2021-07-08_19h21.57.044,Agingstudy,2020.2.10,Win32,60,,,,,E,,,,,,,,,,,,,,,1,0,2.81728,0,56,56,56,1,2,NEW,SIMILAR,,,,,,,,
,,,,,,,,,,,,,,,,TestWords/RAY_PA_TI.wav,,5ded58a8217786000b2b2511,2021-07-08_19h21.57.044,Agingstudy,2020.2.10,Win32,60,,,,,E,,,,,,,,,,,,,,,1,1,0.219085,0,57,57,57,1,1,OLD,OLD,,,,,,,,
,,,,,,,,,,,,,,,,TestWords/DAI_RU_CHI.wav,,5ded58a8217786000b2b2511,2021-07-08_19h21.57.044,Agingstudy,2020.2.10,Win32,60,,,,,E,,,,,,,,,,,,,,,1,1,1.56834,0,58,58,58,1,1,OLD,OLD,,,,,,,,
,,,,,,,,,,,,,,,,TestWords/KO_SU_FAI.wav,,5ded58a8217786000b2b2511,2021-07-08_19h21.57.044,Agingstudy,2020.2.10,Win32,60,,,,,E,,,,,,,,,,,,,,,2,0,0.518725,0,59,59,59,1,1,OLD,OLD,,,,,,,,
,,,,,,,,,,,,,,,,TestWords/ZO_RAI_FU.wav,,5ded58a8217786000b2b2511,2021-07-08_19h21.57.044,Agingstudy,2020.2.10,Win32,60,,,,,E,,,,,,,,,,,,,,,2,1,3.73188,0,60,60,60,1,2,NEW,NEW,,,,,,,,
,,,,,,,,,,,,,,,,TestWords/KAI_LAY_TA.wav,,5ded58a8217786000b2b2511,2021-07-08_19h21.57.044,Agingstudy,2020.2.10,Win32,60,,,,,E,,,,,,,,,,,,,,,1,1,1.73427,0,61,61,61,1,1,OLD,OLD,,,,,,,,
,,,,,,,,,,,,,,,,TestWords/GA_MU_ZI.wav,,5ded58a8217786000b2b2511,2021-07-08_19h21.57.044,Agingstudy,2020.2.10,Win32,60,,,,,E,,,,,,,,,,,,,,,2,0,0.58594,0,62,62,62,1,1,OLD,OLD,,,,,,,,
,,,,,,,,,,,,,,,,TestWords/TAI_GI_SA.wav,,5ded58a8217786000b2b2511,2021-07-08_19h21.57.044,Agingstudy,2020.2.10,Win32,60,,,,,E,,,,,,,,,,,,,,,2,1,0.969005,0,63,63,63,1,2,NEW,SIMILAR,,,,,,,,
,,,,,,,,,,,,,,,,TestWords/RAY_PA_TI.wav,,5ded58a8217786000b2b2511,2021-07-08_19h21.57.044,Agingstudy,2020.2.10,Win32,60,,,,,E,,,,,,,,,,,,,,,1,1,0.352565,0,64,64,64,1,1,OLD,OLD,,,,,,,,
,,,,,,,,,,,,,,,,TestWords/DAY_PU_MO.wav,,5ded58a8217786000b2b2511,2021-07-08_19h21.57.044,Agingstudy,2020.2.10,Win32,60,,,,,E,,,,,,,,,,,,,,,2,1,0.902505,0,65,65,65,1,2,NEW,SIMILAR,,,,,,,,
,,,,,,,,,,,,,,,,TestWords/KO_SU_FAI.wav,,5ded58a8217786000b2b2511,2021-07-08_19h21.57.044,Agingstudy,2020.2.10,Win32,60,,,,,E,,,,,,,,,,,,,,,2,0,0.43655,0,66,66,66,1,1,OLD,OLD,,,,,,,,
,,,,,,,,,,,,,,,,TestWords/DAI_RU_CHI.wav,,5ded58a8217786000b2b2511,2021-07-08_19h21.57.044,Agingstudy,2020.2.10,Win32,60,,,,,E,,,,,,,,,,,,,,,1,1,0.469165,0,67,67,67,1,1,OLD,OLD,,,,,,,,
,,,,,,,,,,,,,,,,TestWords/KAI_LAY_TA.wav,,5ded58a8217786000b2b2511,2021-07-08_19h21.57.044,Agingstudy,2020.2.10,Win32,60,,,,,E,,,,,,,,,,,,,,,1,1,1.85077,0,68,68,68,1,1,OLD,OLD,,,,,,,,
,,,,,,,,,,,,,,,,TestWords/SI_VAI_CHU.wav,,5ded58a8217786000b2b2511,2021-07-08_19h21.57.044,Agingstudy,2020.2.10,Win32,60,,,,,E,,,,,,,,,,,,,,,2,1,0.84547,0,69,69,69,1,2,NEW,NEW,,,,,,,,
,,,,,,,,,,,,,,,,TestWords/GA_MU_ZI.wav,,5ded58a8217786000b2b2511,2021-07-08_19h21.57.044,Agingstudy,2020.2.10,Win32,60,,,,,E,,,,,,,,,,,,,,,1,1,1.168965,0,70,70,70,1,1,OLD,OLD,,,,,,,,
,,,,,,,,,,,,,,,,TestWords/KO_SU_FAI.wav,,5ded58a8217786000b2b2511,2021-07-08_19h21.57.044,Agingstudy,2020.2.10,Win32,60,,,,,E,,,,,,,,,,,,,,,2,0,0.552495,0,71,71,71,1,1,OLD,OLD,,,,,,,,
,,,,,,,,,,,,,,,,TestWords/RAI_FU_ZO.wav,,5ded58a8217786000b2b2511,2021-07-08_19h21.57.044,Agingstudy,2020.2.10,Win32,60,,,,,E,,,,,,,,,,,,,,,2,1,1.0023,0,72,72,72,1,2,NEW,SIMILAR,,,,,,,,
,,,,,,,,,,,,,,,,TestWords/KAI_LAY_TA.wav,,5ded58a8217786000b2b2511,2021-07-08_19h21.57.044,Agingstudy,2020.2.10,Win32,60,,,,,E,,,,,,,,,,,,,,,1,1,0.519045,0,73,73,73,1,1,OLD,OLD,,,,,,,,
,,,,,,,,,,,,,,,,TestWords/RAY_PA_TI.wav,,5ded58a8217786000b2b2511,2021-07-08_19h21.57.044,Agingstudy,2020.2.10,Win32,60,,,,,E,,,,,,,,,,,,,,,1,1,0.50216,0,74,74,74,1,1,OLD,OLD,,,,,,,,
,,,,,,,,,,,,,,,,TestWords/DAI_RU_CHI.wav,,5ded58a8217786000b2b2511,2021-07-08_19h21.57.044,Agingstudy,2020.2.10,Win32,60,,,,,E,,,,,,,,,,,,,,,1,1,1.800965,0,75,75,75,1,1,OLD,OLD,,,,,,,,
,,,,,,,,,,,,,,,,TestWords/MO_PU_DAY.wav,,5ded58a8217786000b2b2511,2021-07-08_19h21.57.044,Agingstudy,2020.2.10,Win32,60,,,,,E,,,,,,,,,,,,,,,2,1,0.618735,0,76,76,76,1,2,NEW,SIMILAR,,,,,,,,
,,,,,,,,,,,,,,,,TestWords/GA_MU_ZI.wav,,5ded58a8217786000b2b2511,2021-07-08_19h21.57.044,Agingstudy,2020.2.10,Win32,60,,,,,E,,,,,,,,,,,,,,,1,1,1.0842,0,77,77,77,1,1,OLD,OLD,,,,,,,,
,,,,,,,,,,,,,,,,TestWords/KO_SU_FAI.wav,,5ded58a8217786000b2b2511,2021-07-08_19h21.57.044,Agingstudy,2020.2.10,Win32,60,,,,,E,,,,,,,,,,,,,,,2,0,0.73548,0,78,78,78,1,1,OLD,OLD,,,,,,,,
,,,,,,,,,,,,,,,,TestWords/NO_WA_BAY.wav,,5ded58a8217786000b2b2511,2021-07-08_19h21.57.044,Agingstudy,2020.2.10,Win32,60,,,,,E,,,,,,,,,,,,,,,2,1,1.469305,0,79,79,79,1,2,NEW,NEW,,,,,,,,
,,,,,,,,,,,,,,,,TestWords/KAI_LAY_TA.wav,,5ded58a8217786000b2b2511,2021-07-08_19h21.57.044,Agingstudy,2020.2.10,Win32,60,,,,,E,,,,,,,,,,,,,,,1,1,1.269395,0,80,80,80,1,1,OLD,OLD,,,,,,,,
,,,,,,,,,,,,,,,,TestWords/RAY_PA_TI.wav,,5ded58a8217786000b2b2511,2021-07-08_19h21.57.044,Agingstudy,2020.2.10,Win32,60,,,,,E,,,,,,,,,,,,,,,1,1,0.65226,0,81,81,81,1,1,OLD,OLD,,,,,,,,
,,,,,,,,,,,,,,,,TestWords/RAI_ZO_FU.wav,,5ded58a8217786000b2b2511,2021-07-08_19h21.57.044,Agingstudy,2020.2.10,Win32,60,,,,,E,,,,,,,,,,,,,,,1,0,2.23336,0,82,82,82,1,2,NEW,SIMILAR,,,,,,,,
,,,,,,,,,,,,,,,,TestWords/DAI_RU_CHI.wav,,5ded58a8217786000b2b2511,2021-07-08_19h21.57.044,Agingstudy,2020.2.10,Win32,60,,,,,E,,,,,,,,,,,,,,,1,1,1.30179,0,83,83,83,1,1,OLD,OLD,,,,,,,,
,,,,,,,,,,,,,,,,TestWords/HA_SI_JAI.wav,,5ded58a8217786000b2b2511,2021-07-08_19h21.57.044,Agingstudy,2020.2.10,Win32,60,,,,,E,,,,,,,,,,,,,,,2,1,0.71829,0,84,84,84,1,2,NEW,NEW,,,,,,,,
,,,,,,,,,,,,,,,,TestWords/KO_SU_FAI.wav,,5ded58a8217786000b2b2511,2021-07-08_19h21.57.044,Agingstudy,2020.2.10,Win32,60,,,,,E,,,,,,,,,,,,,,,2,0,2.35,0,85,85,85,1,1,OLD,OLD,,,,,,,,
,,,,,,,,,,,,,,,,TestWords/KAI_LAY_TA.wav,,5ded58a8217786000b2b2511,2021-07-08_19h21.57.044,Agingstudy,2020.2.10,Win32,60,,,,,E,,,,,,,,,,,,,,,2,0,1.31764,0,86,86,86,1,1,OLD,OLD,,,,,,,,
,,,,,,,,,,,,,,,,TestWords/GA_MU_ZI.wav,,5ded58a8217786000b2b2511,2021-07-08_19h21.57.044,Agingstudy,2020.2.10,Win32,60,,,,,E,,,,,,,,,,,,,,,1,1,0.68565,0,87,87,87,1,1,OLD,OLD,,,,,,,,
,,,,,,,,,,,,,,,,TestWords/FU_ZO_RAI.wav,,5ded58a8217786000b2b2511,2021-07-08_19h21.57.044,Agingstudy,2020.2.10,Win32,60,,,,,E,,,,,,,,,,,,,,,2,1,0.918825,0,88,88,88,1,2,NEW,SIMILAR,,,,,,,,
,,,,,,,,,,,,,,,,TestWords/KO_SU_FAI.wav,,5ded58a8217786000b2b2511,2021-07-08_19h21.57.044,Agingstudy,2020.2.10,Win32,60,,,,,E,,,,,,,,,,,,,,,2,0,2.749865,0,89,89,89,1,1,OLD,OLD,,,,,,,,
,,,,,,,,,,,,,,,,TestWords/KAI_LAY_TA.wav,,5ded58a8217786000b2b2511,2021-07-08_19h21.57.044,Agingstudy,2020.2.10,Win32,60,,,,,E,,,,,,,,,,,,,,,1,1,1.30201,0,90,90,90,1,1,OLD,OLD,,,,,,,,
,,,,,,,,,,,,,,,,TestWords/DAI_RU_CHI.wav,,5ded58a8217786000b2b2511,2021-07-08_19h21.57.044,Agingstudy,2020.2.10,Win32,60,,,,,E,,,,,,,,,,,,,,,1,1,0.68518,0,91,91,91,1,1,OLD,OLD,,,,,,,,
,,,,,,,,,,,,,,,,TestWords/HI_NAY_VA.wav,,5ded58a8217786000b2b2511,2021-07-08_19h21.57.044,Agingstudy,2020.2.10,Win32,60,,,,,E,,,,,,,,,,,,,,,2,1,1.217745,0,92,92,92,1,2,NEW,NEW,,,,,,,,
,,,,,,,,,,,,,,,,TestWords/GU_CHAI_PI.wav,,5ded58a8217786000b2b2511,2021-07-08_19h21.57.044,Agingstudy,2020.2.10,Win32,60,,,,,E,,,,,,,,,,,,,,,2,1,2.168865,0,93,93,93,1,2,NEW,NEW,,,,,,,,
,,,,,,,,,,,,,,,,TestWords/FU_RAI_ZO.wav,,5ded58a8217786000b2b2511,2021-07-08_19h21.57.044,Agingstudy,2020.2.10,Win32,60,,,,,E,,,,,,,,,,,,,,,1,0,2.31741,0,94,94,94,1,2,NEW,SIMILAR,,,,,,,,
,,,,,,,,,,,,,,,,TestWords/KO_SU_FAI.wav,,5ded58a8217786000b2b2511,2021-07-08_19h21.57.044,Agingstudy,2020.2.10,Win32,60,,,,,E,,,,,,,,,,,,,,,2,0,0.9688,0,95,95,95,1,1,OLD,OLD,,,,,,,,
,,,,,,,,,,,,,,,,TestWords/PAI_LU_WA.wav,,5ded58a8217786000b2b2511,2021-07-08_19h21.57.044,Agingstudy,2020.2.10,Win32,60,,,,,E,,,,,,,,,,,,,,,1,0,2.30056,0,96,96,96,1,2,NEW,NEW,,,,,,,,
,,,,,,,,,,,,,,,,TestWords/DAI_RU_CHI.wav,,5ded58a8217786000b2b2511,2021-07-08_19h21.57.044,Agingstudy,2020.2.10,Win32,60,,,,,E,,,,,,,,,,,,,,,1,1,0.93951,0,97,97,97,1,1,OLD,OLD,,,,,,,,
,,,,,,,,,,,,,,,,TestWords/FI_GU_CHA.wav,,5ded58a8217786000b2b2511,2021-07-08_19h21.57.044,Agingstudy,2020.2.10,Win32,60,,,,,E,,,,,,,,,,,,,,,2,1,3.212685,0,98,98,98,1,2,NEW,NEW,,,,,,,,
,,,,,,,,,,,,,,,,TestWords/ZO_FU_RAI.wav,,5ded58a8217786000b2b2511,2021-07-08_19h21.57.044,Agingstudy,2020.2.10,Win32,60,,,,,E,,,,,,,,,,,,,,,1,0,3.652895,0,99,99,99,1,2,NEW,SIMILAR,,,,,,,,
,,,,,,,,,,,,,,,,,,5ded58a8217786000b2b2511,2021-07-08_19h21.57.044,Agingstudy,2020.2.10,Win32,60,,,,,,,,,,,,,,,,,,,,,,,,,,,,,,,0,0,0,0,1,,,
,,,,,,,,,,,,,,,,,,5ded58a8217786000b2b2511,2021-07-08_19h21.57.044,Agingstudy,2020.2.10,Win32,60,,,,,,,,,,,,,,,,,,,,,,,,,,,,,,,,,,,,return,130.702285,Everything was fine with very clear instructions. That was a seriously tough study to take part in especially the latter half of the words so many of which sounded similar. I gave it my best shot but nonetheless it was really enjoyable to take part. Many thanks and good luck in your research analysis. 
