Welcome0Continue.keys,Welcome0Continue.rt,SoundCheckBegin.keys,SoundCheckBegin.rt,SoundCheckEndKey.keys,SoundCheckEndKey.rt,HeadphoneContinueKey.keys,HeadphoneContinueKey.rt,CheckResp.keys,CheckResp.corr,CheckResp.rt,HeadphoneLoop.thisRepN,HeadphoneLoop.thisTrialN,HeadphoneLoop.thisN,HeadphoneLoop.thisIndex,HeadphoneLoop.ran,File,Correct,participant,date,expName,psychopyVersion,OS,frameRate,STUDY_ID,SESSION_ID,ContinueKey8.keys,ContinueKey8.rt,MSTWelcomeContKey.keys,MSTWelcomeContKey.rt,Condition,MSTTrainIntroKey.keys,MSTTrainIntroKey.rt,MSTTrainKeys.keys,MSTTrainKeys.corr,MSTTrainKeys.rt,MSTTrainLoop.thisRepN,MSTTrainLoop.thisTrialN,MSTTrainLoop.thisN,MSTTrainLoop.thisIndex,MSTTrainLoop.ran,SoundFile,Type,MSTTestBeginKey.keys,MSTTestBeginKey.rt,MST_resp.keys,MST_resp.corr,MST_resp.rt,MSTPlayLoop.thisRepN,MSTPlayLoop.thisTrialN,MSTPlayLoop.thisN,MSTPlayLoop.thisIndex,MSTPlayLoop.ran,WordCorrect,Correct_type,WordType,MSTLoop.thisRepN,MSTLoop.thisTrialN,MSTLoop.thisN,MSTLoop.thisIndex,MSTLoop.ran,EndAllKey.keys,EndAllKey.rt,FeedbackResp.text
space,12.4798,space,2.8322,space,3.177,space,7.2439,3,1,0.581,0,0,0,5,1,Headphone/t3_2.wav,3,5ec79cbd44972a1fceed2719,2021-07-15_06h30.13.886,Agingstudy_mst,2020.2.10,Win32,60,60e99bd7bc9be7be49ca9171,60efc7cb0c55779792374d1a,,,,,,,,,,,,,,,,,,,,,,,,,,,,,,,,,,,,,,
,,,,,,,,3,1,0.2841,0,1,1,4,1,Headphone/t3_1.wav,3,5ec79cbd44972a1fceed2719,2021-07-15_06h30.13.886,Agingstudy_mst,2020.2.10,Win32,60,60e99bd7bc9be7be49ca9171,60efc7cb0c55779792374d1a,,,,,,,,,,,,,,,,,,,,,,,,,,,,,,,,,,,,,,
,,,,,,,,1,1,0.2568,0,2,2,0,1,Headphone/t1_1.wav,1,5ec79cbd44972a1fceed2719,2021-07-15_06h30.13.886,Agingstudy_mst,2020.2.10,Win32,60,60e99bd7bc9be7be49ca9171,60efc7cb0c55779792374d1a,,,,,,,,,,,,,,,,,,,,,,,,,,,,,,,,,,,,,,
,,,,,,,,1,1,0.2968,0,3,3,1,1,Headphone/t1_2.wav,1,5ec79cbd44972a1fceed2719,2021-07-15_06h30.13.886,Agingstudy_mst,2020.2.10,Win32,60,60e99bd7bc9be7be49ca9171,60efc7cb0c55779792374d1a,,,,,,,,,,,,,,,,,,,,,,,,,,,,,,,,,,,,,,
,,,,,,,,2,1,0.2304,0,4,4,2,1,Headphone/t2_1.wav,2,5ec79cbd44972a1fceed2719,2021-07-15_06h30.13.886,Agingstudy_mst,2020.2.10,Win32,60,60e99bd7bc9be7be49ca9171,60efc7cb0c55779792374d1a,,,,,,,,,,,,,,,,,,,,,,,,,,,,,,,,,,,,,,
,,,,,,,,2,1,0.2071,0,5,5,3,1,Headphone/t2_2.wav,2,5ec79cbd44972a1fceed2719,2021-07-15_06h30.13.886,Agingstudy_mst,2020.2.10,Win32,60,60e99bd7bc9be7be49ca9171,60efc7cb0c55779792374d1a,,,,,,,,,,,,,,,,,,,,,,,,,,,,,,,,,,,,,,
,,,,,,,,,,,,,,,,,2,5ec79cbd44972a1fceed2719,2021-07-15_06h30.13.886,Agingstudy_mst,2020.2.10,Win32,60,60e99bd7bc9be7be49ca9171,60efc7cb0c55779792374d1a,space,39.9268,space,8.7739,1,space,4.9595,2,1,5.2577,0,0,0,0,1,Training/FO_YI_LAY.wav,NEW,,,,,,,,,,,,,,,,,,,,,
,,,,,,,,,,,,,,,,,1,5ec79cbd44972a1fceed2719,2021-07-15_06h30.13.886,Agingstudy_mst,2020.2.10,Win32,60,60e99bd7bc9be7be49ca9171,60efc7cb0c55779792374d1a,,,,,,,,1,1,1.3869,0,1,1,1,1,Training/FO_YI_LAY.wav,OLD,,,,,,,,,,,,,,,,,,,,,
,,,,,,,,,,,,,,,,,2,5ec79cbd44972a1fceed2719,2021-07-15_06h30.13.886,Agingstudy_mst,2020.2.10,Win32,60,60e99bd7bc9be7be49ca9171,60efc7cb0c55779792374d1a,,,,,,,,2,1,2.6331,0,2,2,2,1,Training/YO_BU_JAY.wav,NEW,,,,,,,,,,,,,,,,,,,,,
,,,,,,,,,,,,,,,,,2,5ec79cbd44972a1fceed2719,2021-07-15_06h30.13.886,Agingstudy_mst,2020.2.10,Win32,60,60e99bd7bc9be7be49ca9171,60efc7cb0c55779792374d1a,,,,,,,,2,1,1.4757,0,3,3,3,1,Training/JAY_YO_BU.wav,SIMILAR,,,,,,,,,,,,,,,,,,,,,
,,,,,,,,,,,,,,,,,1,5ec79cbd44972a1fceed2719,2021-07-15_06h30.13.886,Agingstudy_mst,2020.2.10,Win32,60,60e99bd7bc9be7be49ca9171,60efc7cb0c55779792374d1a,,,,,,,,1,1,1.5327,0,4,4,4,1,Training/FO_YI_LAY.wav,OLD,,,,,,,,,,,,,,,,,,,,,
,,,,,,,,,,,,,,,,TestWords/CHU_LA_PAY.wav,,5ec79cbd44972a1fceed2719,2021-07-15_06h30.13.886,Agingstudy_mst,2020.2.10,Win32,60,60e99bd7bc9be7be49ca9171,60efc7cb0c55779792374d1a,,,,,D,,,,,,,,,,,,,space,16.6487,2,1,7.9875,0,0,0,0,1,2,NEW,NEW,,,,,,,,
,,,,,,,,,,,,,,,,TestWords/FI_GU_CHA.wav,,5ec79cbd44972a1fceed2719,2021-07-15_06h30.13.886,Agingstudy_mst,2020.2.10,Win32,60,60e99bd7bc9be7be49ca9171,60efc7cb0c55779792374d1a,,,,,D,,,,,,,,,,,,,,,2,1,5.1841,0,1,1,1,1,2,NEW,NEW,,,,,,,,
,,,,,,,,,,,,,,,,TestWords/RAI_ZO_FU.wav,,5ec79cbd44972a1fceed2719,2021-07-15_06h30.13.886,Agingstudy_mst,2020.2.10,Win32,60,60e99bd7bc9be7be49ca9171,60efc7cb0c55779792374d1a,,,,,D,,,,,,,,,,,,,,,2,1,5.1007,0,2,2,2,1,2,NEW,NEW,,,,,,,,
,,,,,,,,,,,,,,,,TestWords/DAI_RU_CHI.wav,,5ec79cbd44972a1fceed2719,2021-07-15_06h30.13.886,Agingstudy_mst,2020.2.10,Win32,60,60e99bd7bc9be7be49ca9171,60efc7cb0c55779792374d1a,,,,,D,,,,,,,,,,,,,,,2,1,4.7355,0,3,3,3,1,2,NEW,NEW,,,,,,,,
,,,,,,,,,,,,,,,,TestWords/GA_MU_ZI.wav,,5ec79cbd44972a1fceed2719,2021-07-15_06h30.13.886,Agingstudy_mst,2020.2.10,Win32,60,60e99bd7bc9be7be49ca9171,60efc7cb0c55779792374d1a,,,,,D,,,,,,,,,,,,,,,2,1,5.3771,0,4,4,4,1,2,NEW,NEW,,,,,,,,
,,,,,,,,,,,,,,,,TestWords/DA_CHU_VAI.wav,,5ec79cbd44972a1fceed2719,2021-07-15_06h30.13.886,Agingstudy_mst,2020.2.10,Win32,60,60e99bd7bc9be7be49ca9171,60efc7cb0c55779792374d1a,,,,,D,,,,,,,,,,,,,,,2,1,6.5677,0,5,5,5,1,2,NEW,NEW,,,,,,,,
,,,,,,,,,,,,,,,,TestWords/ZO_RAI_FU.wav,,5ec79cbd44972a1fceed2719,2021-07-15_06h30.13.886,Agingstudy_mst,2020.2.10,Win32,60,60e99bd7bc9be7be49ca9171,60efc7cb0c55779792374d1a,,,,,D,,,,,,,,,,,,,,,2,1,6.561,0,6,6,6,1,2,NEW,SIMILAR,,,,,,,,
,,,,,,,,,,,,,,,,TestWords/BA_KAY_LI.wav,,5ec79cbd44972a1fceed2719,2021-07-15_06h30.13.886,Agingstudy_mst,2020.2.10,Win32,60,60e99bd7bc9be7be49ca9171,60efc7cb0c55779792374d1a,,,,,D,,,,,,,,,,,,,,,2,1,4.6213,0,7,7,7,1,2,NEW,NEW,,,,,,,,
,,,,,,,,,,,,,,,,TestWords/VAI_HO_LA.wav,,5ec79cbd44972a1fceed2719,2021-07-15_06h30.13.886,Agingstudy_mst,2020.2.10,Win32,60,60e99bd7bc9be7be49ca9171,60efc7cb0c55779792374d1a,,,,,D,,,,,,,,,,,,,,,2,1,4.1278,0,8,8,8,1,2,NEW,NEW,,,,,,,,
,,,,,,,,,,,,,,,,TestWords/DAI_RU_CHI.wav,,5ec79cbd44972a1fceed2719,2021-07-15_06h30.13.886,Agingstudy_mst,2020.2.10,Win32,60,60e99bd7bc9be7be49ca9171,60efc7cb0c55779792374d1a,,,,,D,,,,,,,,,,,,,,,1,1,6.438,0,9,9,9,1,1,OLD,OLD,,,,,,,,
,,,,,,,,,,,,,,,,TestWords/RAY_PA_TI.wav,,5ec79cbd44972a1fceed2719,2021-07-15_06h30.13.886,Agingstudy_mst,2020.2.10,Win32,60,60e99bd7bc9be7be49ca9171,60efc7cb0c55779792374d1a,,,,,D,,,,,,,,,,,,,,,2,1,5.5596,0,10,10,10,1,2,NEW,NEW,,,,,,,,
,,,,,,,,,,,,,,,,TestWords/NO_WA_BAY.wav,,5ec79cbd44972a1fceed2719,2021-07-15_06h30.13.886,Agingstudy_mst,2020.2.10,Win32,60,60e99bd7bc9be7be49ca9171,60efc7cb0c55779792374d1a,,,,,D,,,,,,,,,,,,,,,2,1,7.8447,0,11,11,11,1,2,NEW,NEW,,,,,,,,
,,,,,,,,,,,,,,,,TestWords/GA_MU_ZI.wav,,5ec79cbd44972a1fceed2719,2021-07-15_06h30.13.886,Agingstudy_mst,2020.2.10,Win32,60,60e99bd7bc9be7be49ca9171,60efc7cb0c55779792374d1a,,,,,D,,,,,,,,,,,,,,,1,1,2.303,0,12,12,12,1,1,OLD,OLD,,,,,,,,
,,,,,,,,,,,,,,,,TestWords/WAI_VU_NA.wav,,5ec79cbd44972a1fceed2719,2021-07-15_06h30.13.886,Agingstudy_mst,2020.2.10,Win32,60,60e99bd7bc9be7be49ca9171,60efc7cb0c55779792374d1a,,,,,D,,,,,,,,,,,,,,,2,1,5.7738,0,13,13,13,1,2,NEW,NEW,,,,,,,,
,,,,,,,,,,,,,,,,TestWords/KAY_LI_BA.wav,,5ec79cbd44972a1fceed2719,2021-07-15_06h30.13.886,Agingstudy_mst,2020.2.10,Win32,60,60e99bd7bc9be7be49ca9171,60efc7cb0c55779792374d1a,,,,,D,,,,,,,,,,,,,,,2,1,7.9546,0,14,14,14,1,2,NEW,SIMILAR,,,,,,,,
,,,,,,,,,,,,,,,,TestWords/FU_RAI_ZO.wav,,5ec79cbd44972a1fceed2719,2021-07-15_06h30.13.886,Agingstudy_mst,2020.2.10,Win32,60,60e99bd7bc9be7be49ca9171,60efc7cb0c55779792374d1a,,,,,D,,,,,,,,,,,,,,,2,1,7.3587,0,15,15,15,1,2,NEW,SIMILAR,,,,,,,,
,,,,,,,,,,,,,,,,TestWords/KAI_LAY_TA.wav,,5ec79cbd44972a1fceed2719,2021-07-15_06h30.13.886,Agingstudy_mst,2020.2.10,Win32,60,60e99bd7bc9be7be49ca9171,60efc7cb0c55779792374d1a,,,,,D,,,,,,,,,,,,,,,2,1,7.5245,0,16,16,16,1,2,NEW,NEW,,,,,,,,
,,,,,,,,,,,,,,,,TestWords/RAY_PA_TI.wav,,5ec79cbd44972a1fceed2719,2021-07-15_06h30.13.886,Agingstudy_mst,2020.2.10,Win32,60,60e99bd7bc9be7be49ca9171,60efc7cb0c55779792374d1a,,,,,D,,,,,,,,,,,,,,,2,0,13.5232,0,17,17,17,1,1,OLD,OLD,,,,,,,,
,,,,,,,,,,,,,,,,TestWords/DAI_RU_CHI.wav,,5ec79cbd44972a1fceed2719,2021-07-15_06h30.13.886,Agingstudy_mst,2020.2.10,Win32,60,60e99bd7bc9be7be49ca9171,60efc7cb0c55779792374d1a,,,,,D,,,,,,,,,,,,,,,1,1,1.6567,0,18,18,18,1,1,OLD,OLD,,,,,,,,
,,,,,,,,,,,,,,,,TestWords/WAI_NA_VU.wav,,5ec79cbd44972a1fceed2719,2021-07-15_06h30.13.886,Agingstudy_mst,2020.2.10,Win32,60,60e99bd7bc9be7be49ca9171,60efc7cb0c55779792374d1a,,,,,D,,,,,,,,,,,,,,,1,0,7.001,0,19,19,19,1,2,NEW,SIMILAR,,,,,,,,
,,,,,,,,,,,,,,,,TestWords/GA_MU_ZI.wav,,5ec79cbd44972a1fceed2719,2021-07-15_06h30.13.886,Agingstudy_mst,2020.2.10,Win32,60,60e99bd7bc9be7be49ca9171,60efc7cb0c55779792374d1a,,,,,D,,,,,,,,,,,,,,,1,1,5.2596,0,20,20,20,1,1,OLD,OLD,,,,,,,,
,,,,,,,,,,,,,,,,TestWords/KAY_BA_LI.wav,,5ec79cbd44972a1fceed2719,2021-07-15_06h30.13.886,Agingstudy_mst,2020.2.10,Win32,60,60e99bd7bc9be7be49ca9171,60efc7cb0c55779792374d1a,,,,,D,,,,,,,,,,,,,,,2,1,9.1424,0,21,21,21,1,2,NEW,SIMILAR,,,,,,,,
,,,,,,,,,,,,,,,,TestWords/KAI_LAY_TA.wav,,5ec79cbd44972a1fceed2719,2021-07-15_06h30.13.886,Agingstudy_mst,2020.2.10,Win32,60,60e99bd7bc9be7be49ca9171,60efc7cb0c55779792374d1a,,,,,D,,,,,,,,,,,,,,,1,1,7.2353,0,22,22,22,1,1,OLD,OLD,,,,,,,,
,,,,,,,,,,,,,,,,TestWords/FU_ZO_RAI.wav,,5ec79cbd44972a1fceed2719,2021-07-15_06h30.13.886,Agingstudy_mst,2020.2.10,Win32,60,60e99bd7bc9be7be49ca9171,60efc7cb0c55779792374d1a,,,,,D,,,,,,,,,,,,,,,2,1,15.1359,0,23,23,23,1,2,NEW,SIMILAR,,,,,,,,
,,,,,,,,,,,,,,,,TestWords/RAY_PA_TI.wav,,5ec79cbd44972a1fceed2719,2021-07-15_06h30.13.886,Agingstudy_mst,2020.2.10,Win32,60,60e99bd7bc9be7be49ca9171,60efc7cb0c55779792374d1a,,,,,D,,,,,,,,,,,,,,,1,1,4.9302,0,24,24,24,1,1,OLD,OLD,,,,,,,,
,,,,,,,,,,,,,,,,TestWords/DAI_RU_CHI.wav,,5ec79cbd44972a1fceed2719,2021-07-15_06h30.13.886,Agingstudy_mst,2020.2.10,Win32,60,60e99bd7bc9be7be49ca9171,60efc7cb0c55779792374d1a,,,,,D,,,,,,,,,,,,,,,1,1,1.9067,0,25,25,25,1,1,OLD,OLD,,,,,,,,
,,,,,,,,,,,,,,,,TestWords/VU_NA_WAI.wav,,5ec79cbd44972a1fceed2719,2021-07-15_06h30.13.886,Agingstudy_mst,2020.2.10,Win32,60,60e99bd7bc9be7be49ca9171,60efc7cb0c55779792374d1a,,,,,D,,,,,,,,,,,,,,,2,1,9.0558,0,26,26,26,1,2,NEW,SIMILAR,,,,,,,,
,,,,,,,,,,,,,,,,TestWords/RAI_FU_ZO.wav,,5ec79cbd44972a1fceed2719,2021-07-15_06h30.13.886,Agingstudy_mst,2020.2.10,Win32,60,60e99bd7bc9be7be49ca9171,60efc7cb0c55779792374d1a,,,,,D,,,,,,,,,,,,,,,2,1,10.6886,0,27,27,27,1,2,NEW,SIMILAR,,,,,,,,
,,,,,,,,,,,,,,,,TestWords/GA_MU_ZI.wav,,5ec79cbd44972a1fceed2719,2021-07-15_06h30.13.886,Agingstudy_mst,2020.2.10,Win32,60,60e99bd7bc9be7be49ca9171,60efc7cb0c55779792374d1a,,,,,D,,,,,,,,,,,,,,,1,1,1.2635,0,28,28,28,1,1,OLD,OLD,,,,,,,,
,,,,,,,,,,,,,,,,TestWords/LI_BA_KAY.wav,,5ec79cbd44972a1fceed2719,2021-07-15_06h30.13.886,Agingstudy_mst,2020.2.10,Win32,60,60e99bd7bc9be7be49ca9171,60efc7cb0c55779792374d1a,,,,,D,,,,,,,,,,,,,,,2,1,13.0955,0,29,29,29,1,2,NEW,SIMILAR,,,,,,,,
,,,,,,,,,,,,,,,,TestWords/KAI_LAY_TA.wav,,5ec79cbd44972a1fceed2719,2021-07-15_06h30.13.886,Agingstudy_mst,2020.2.10,Win32,60,60e99bd7bc9be7be49ca9171,60efc7cb0c55779792374d1a,,,,,D,,,,,,,,,,,,,,,2,0,20.9593,0,30,30,30,1,1,OLD,OLD,,,,,,,,
,,,,,,,,,,,,,,,,TestWords/RAY_PA_TI.wav,,5ec79cbd44972a1fceed2719,2021-07-15_06h30.13.886,Agingstudy_mst,2020.2.10,Win32,60,60e99bd7bc9be7be49ca9171,60efc7cb0c55779792374d1a,,,,,D,,,,,,,,,,,,,,,1,1,2.5173,0,31,31,31,1,1,OLD,OLD,,,,,,,,
,,,,,,,,,,,,,,,,TestWords/VU_WAI_NA.wav,,5ec79cbd44972a1fceed2719,2021-07-15_06h30.13.886,Agingstudy_mst,2020.2.10,Win32,60,60e99bd7bc9be7be49ca9171,60efc7cb0c55779792374d1a,,,,,D,,,,,,,,,,,,,,,2,1,10.0425,0,32,32,32,1,2,NEW,SIMILAR,,,,,,,,
,,,,,,,,,,,,,,,,TestWords/DAI_RU_CHI.wav,,5ec79cbd44972a1fceed2719,2021-07-15_06h30.13.886,Agingstudy_mst,2020.2.10,Win32,60,60e99bd7bc9be7be49ca9171,60efc7cb0c55779792374d1a,,,,,D,,,,,,,,,,,,,,,1,1,1.8175,0,33,33,33,1,1,OLD,OLD,,,,,,,,
,,,,,,,,,,,,,,,,TestWords/ZO_FU_RAI.wav,,5ec79cbd44972a1fceed2719,2021-07-15_06h30.13.886,Agingstudy_mst,2020.2.10,Win32,60,60e99bd7bc9be7be49ca9171,60efc7cb0c55779792374d1a,,,,,D,,,,,,,,,,,,,,,2,1,7.5346,0,34,34,34,1,2,NEW,SIMILAR,,,,,,,,
,,,,,,,,,,,,,,,,TestWords/BA_LI_KAY.wav,,5ec79cbd44972a1fceed2719,2021-07-15_06h30.13.886,Agingstudy_mst,2020.2.10,Win32,60,60e99bd7bc9be7be49ca9171,60efc7cb0c55779792374d1a,,,,,D,,,,,,,,,,,,,,,2,1,12.3013,0,35,35,35,1,2,NEW,SIMILAR,,,,,,,,
,,,,,,,,,,,,,,,,TestWords/KO_SU_FAI.wav,,5ec79cbd44972a1fceed2719,2021-07-15_06h30.13.886,Agingstudy_mst,2020.2.10,Win32,60,60e99bd7bc9be7be49ca9171,60efc7cb0c55779792374d1a,,,,,D,,,,,,,,,,,,,,,2,1,3.2105,0,36,36,36,1,2,NEW,NEW,,,,,,,,
,,,,,,,,,,,,,,,,TestWords/KAI_LAY_TA.wav,,5ec79cbd44972a1fceed2719,2021-07-15_06h30.13.886,Agingstudy_mst,2020.2.10,Win32,60,60e99bd7bc9be7be49ca9171,60efc7cb0c55779792374d1a,,,,,D,,,,,,,,,,,,,,,1,1,9.5248,0,37,37,37,1,1,OLD,OLD,,,,,,,,
,,,,,,,,,,,,,,,,TestWords/RAY_PA_TI.wav,,5ec79cbd44972a1fceed2719,2021-07-15_06h30.13.886,Agingstudy_mst,2020.2.10,Win32,60,60e99bd7bc9be7be49ca9171,60efc7cb0c55779792374d1a,,,,,D,,,,,,,,,,,,,,,1,1,5.8022,0,38,38,38,1,1,OLD,OLD,,,,,,,,
,,,,,,,,,,,,,,,,TestWords/GA_MU_ZI.wav,,5ec79cbd44972a1fceed2719,2021-07-15_06h30.13.886,Agingstudy_mst,2020.2.10,Win32,60,60e99bd7bc9be7be49ca9171,60efc7cb0c55779792374d1a,,,,,D,,,,,,,,,,,,,,,1,1,9.9981,0,39,39,39,1,1,OLD,OLD,,,,,,,,
,,,,,,,,,,,,,,,,TestWords/NA_VU_WAI.wav,,5ec79cbd44972a1fceed2719,2021-07-15_06h30.13.886,Agingstudy_mst,2020.2.10,Win32,60,60e99bd7bc9be7be49ca9171,60efc7cb0c55779792374d1a,,,,,D,,,,,,,,,,,,,,,2,1,10.1778,0,40,40,40,1,2,NEW,SIMILAR,,,,,,,,
,,,,,,,,,,,,,,,,TestWords/DAI_RU_CHI.wav,,5ec79cbd44972a1fceed2719,2021-07-15_06h30.13.886,Agingstudy_mst,2020.2.10,Win32,60,60e99bd7bc9be7be49ca9171,60efc7cb0c55779792374d1a,,,,,D,,,,,,,,,,,,,,,2,0,9.0306,0,41,41,41,1,1,OLD,OLD,,,,,,,,
,,,,,,,,,,,,,,,,TestWords/KO_SU_FAI.wav,,5ec79cbd44972a1fceed2719,2021-07-15_06h30.13.886,Agingstudy_mst,2020.2.10,Win32,60,60e99bd7bc9be7be49ca9171,60efc7cb0c55779792374d1a,,,,,D,,,,,,,,,,,,,,,1,1,5.8247,0,42,42,42,1,1,OLD,OLD,,,,,,,,
,,,,,,,,,,,,,,,,TestWords/NA_WAI_VU.wav,,5ec79cbd44972a1fceed2719,2021-07-15_06h30.13.886,Agingstudy_mst,2020.2.10,Win32,60,60e99bd7bc9be7be49ca9171,60efc7cb0c55779792374d1a,,,,,D,,,,,,,,,,,,,,,2,1,11.9722,0,43,43,43,1,2,NEW,SIMILAR,,,,,,,,
,,,,,,,,,,,,,,,,TestWords/KAI_LAY_TA.wav,,5ec79cbd44972a1fceed2719,2021-07-15_06h30.13.886,Agingstudy_mst,2020.2.10,Win32,60,60e99bd7bc9be7be49ca9171,60efc7cb0c55779792374d1a,,,,,D,,,,,,,,,,,,,,,1,1,1.5287,0,44,44,44,1,1,OLD,OLD,,,,,,,,
,,,,,,,,,,,,,,,,TestWords/SI_VAI_CHU.wav,,5ec79cbd44972a1fceed2719,2021-07-15_06h30.13.886,Agingstudy_mst,2020.2.10,Win32,60,60e99bd7bc9be7be49ca9171,60efc7cb0c55779792374d1a,,,,,D,,,,,,,,,,,,,,,2,1,2.3739,0,45,45,45,1,2,NEW,NEW,,,,,,,,
,,,,,,,,,,,,,,,,TestWords/RAY_PA_TI.wav,,5ec79cbd44972a1fceed2719,2021-07-15_06h30.13.886,Agingstudy_mst,2020.2.10,Win32,60,60e99bd7bc9be7be49ca9171,60efc7cb0c55779792374d1a,,,,,D,,,,,,,,,,,,,,,1,1,1.8353,0,46,46,46,1,1,OLD,OLD,,,,,,,,
,,,,,,,,,,,,,,,,TestWords/GA_MU_ZI.wav,,5ec79cbd44972a1fceed2719,2021-07-15_06h30.13.886,Agingstudy_mst,2020.2.10,Win32,60,60e99bd7bc9be7be49ca9171,60efc7cb0c55779792374d1a,,,,,D,,,,,,,,,,,,,,,1,1,1.0693,0,47,47,47,1,1,OLD,OLD,,,,,,,,
,,,,,,,,,,,,,,,,TestWords/LI_KAY_BA.wav,,5ec79cbd44972a1fceed2719,2021-07-15_06h30.13.886,Agingstudy_mst,2020.2.10,Win32,60,60e99bd7bc9be7be49ca9171,60efc7cb0c55779792374d1a,,,,,D,,,,,,,,,,,,,,,2,1,12.8932,0,48,48,48,1,2,NEW,SIMILAR,,,,,,,,
,,,,,,,,,,,,,,,,TestWords/KO_SU_FAI.wav,,5ec79cbd44972a1fceed2719,2021-07-15_06h30.13.886,Agingstudy_mst,2020.2.10,Win32,60,60e99bd7bc9be7be49ca9171,60efc7cb0c55779792374d1a,,,,,D,,,,,,,,,,,,,,,1,1,6.3716,0,49,49,49,1,1,OLD,OLD,,,,,,,,
,,,,,,,,,,,,,,,,TestWords/DAI_RU_CHI.wav,,5ec79cbd44972a1fceed2719,2021-07-15_06h30.13.886,Agingstudy_mst,2020.2.10,Win32,60,60e99bd7bc9be7be49ca9171,60efc7cb0c55779792374d1a,,,,,D,,,,,,,,,,,,,,,1,1,14.8077,0,50,50,50,1,1,OLD,OLD,,,,,,,,
,,,,,,,,,,,,,,,,TestWords/DAY_PU_MO.wav,,5ec79cbd44972a1fceed2719,2021-07-15_06h30.13.886,Agingstudy_mst,2020.2.10,Win32,60,60e99bd7bc9be7be49ca9171,60efc7cb0c55779792374d1a,,,,,D,,,,,,,,,,,,,,,2,1,10.5071,0,51,51,51,1,2,NEW,NEW,,,,,,,,
,,,,,,,,,,,,,,,,TestWords/KAI_LAY_TA.wav,,5ec79cbd44972a1fceed2719,2021-07-15_06h30.13.886,Agingstudy_mst,2020.2.10,Win32,60,60e99bd7bc9be7be49ca9171,60efc7cb0c55779792374d1a,,,,,D,,,,,,,,,,,,,,,1,1,2.8588,0,52,52,52,1,1,OLD,OLD,,,,,,,,
,,,,,,,,,,,,,,,,TestWords/LU_HAI_BO.wav,,5ec79cbd44972a1fceed2719,2021-07-15_06h30.13.886,Agingstudy_mst,2020.2.10,Win32,60,60e99bd7bc9be7be49ca9171,60efc7cb0c55779792374d1a,,,,,D,,,,,,,,,,,,,,,2,1,5.2533,0,53,53,53,1,2,NEW,NEW,,,,,,,,
,,,,,,,,,,,,,,,,TestWords/RAY_PA_TI.wav,,5ec79cbd44972a1fceed2719,2021-07-15_06h30.13.886,Agingstudy_mst,2020.2.10,Win32,60,60e99bd7bc9be7be49ca9171,60efc7cb0c55779792374d1a,,,,,D,,,,,,,,,,,,,,,1,1,1.1252,0,54,54,54,1,1,OLD,OLD,,,,,,,,
,,,,,,,,,,,,,,,,TestWords/GA_MU_ZI.wav,,5ec79cbd44972a1fceed2719,2021-07-15_06h30.13.886,Agingstudy_mst,2020.2.10,Win32,60,60e99bd7bc9be7be49ca9171,60efc7cb0c55779792374d1a,,,,,D,,,,,,,,,,,,,,,1,1,1.764,0,55,55,55,1,1,OLD,OLD,,,,,,,,
,,,,,,,,,,,,,,,,TestWords/KO_SU_FAI.wav,,5ec79cbd44972a1fceed2719,2021-07-15_06h30.13.886,Agingstudy_mst,2020.2.10,Win32,60,60e99bd7bc9be7be49ca9171,60efc7cb0c55779792374d1a,,,,,D,,,,,,,,,,,,,,,1,1,8.0174,0,56,56,56,1,1,OLD,OLD,,,,,,,,
,,,,,,,,,,,,,,,,TestWords/TAI_SA_GI.wav,,5ec79cbd44972a1fceed2719,2021-07-15_06h30.13.886,Agingstudy_mst,2020.2.10,Win32,60,60e99bd7bc9be7be49ca9171,60efc7cb0c55779792374d1a,,,,,D,,,,,,,,,,,,,,,2,1,11.0107,0,57,57,57,1,2,NEW,NEW,,,,,,,,
,,,,,,,,,,,,,,,,TestWords/DAY_MO_PU.wav,,5ec79cbd44972a1fceed2719,2021-07-15_06h30.13.886,Agingstudy_mst,2020.2.10,Win32,60,60e99bd7bc9be7be49ca9171,60efc7cb0c55779792374d1a,,,,,D,,,,,,,,,,,,,,,2,1,7.3967,0,58,58,58,1,2,NEW,SIMILAR,,,,,,,,
,,,,,,,,,,,,,,,,TestWords/DAI_RU_CHI.wav,,5ec79cbd44972a1fceed2719,2021-07-15_06h30.13.886,Agingstudy_mst,2020.2.10,Win32,60,60e99bd7bc9be7be49ca9171,60efc7cb0c55779792374d1a,,,,,D,,,,,,,,,,,,,,,1,1,2.4077,0,59,59,59,1,1,OLD,OLD,,,,,,,,
,,,,,,,,,,,,,,,,TestWords/KAI_LAY_TA.wav,,5ec79cbd44972a1fceed2719,2021-07-15_06h30.13.886,Agingstudy_mst,2020.2.10,Win32,60,60e99bd7bc9be7be49ca9171,60efc7cb0c55779792374d1a,,,,,D,,,,,,,,,,,,,,,1,1,10.9874,0,60,60,60,1,1,OLD,OLD,,,,,,,,
,,,,,,,,,,,,,,,,TestWords/LA_ZAY_CHAI.wav,,5ec79cbd44972a1fceed2719,2021-07-15_06h30.13.886,Agingstudy_mst,2020.2.10,Win32,60,60e99bd7bc9be7be49ca9171,60efc7cb0c55779792374d1a,,,,,D,,,,,,,,,,,,,,,2,1,8.1431,0,61,61,61,1,2,NEW,NEW,,,,,,,,
,,,,,,,,,,,,,,,,TestWords/RAY_PA_TI.wav,,5ec79cbd44972a1fceed2719,2021-07-15_06h30.13.886,Agingstudy_mst,2020.2.10,Win32,60,60e99bd7bc9be7be49ca9171,60efc7cb0c55779792374d1a,,,,,D,,,,,,,,,,,,,,,1,1,0.9956,0,62,62,62,1,1,OLD,OLD,,,,,,,,
,,,,,,,,,,,,,,,,TestWords/KO_SU_FAI.wav,,5ec79cbd44972a1fceed2719,2021-07-15_06h30.13.886,Agingstudy_mst,2020.2.10,Win32,60,60e99bd7bc9be7be49ca9171,60efc7cb0c55779792374d1a,,,,,D,,,,,,,,,,,,,,,1,1,9.6472,0,63,63,63,1,1,OLD,OLD,,,,,,,,
,,,,,,,,,,,,,,,,TestWords/GA_MU_ZI.wav,,5ec79cbd44972a1fceed2719,2021-07-15_06h30.13.886,Agingstudy_mst,2020.2.10,Win32,60,60e99bd7bc9be7be49ca9171,60efc7cb0c55779792374d1a,,,,,D,,,,,,,,,,,,,,,1,1,0.9858,0,64,64,64,1,1,OLD,OLD,,,,,,,,
,,,,,,,,,,,,,,,,TestWords/GI_TAI_SA.wav,,5ec79cbd44972a1fceed2719,2021-07-15_06h30.13.886,Agingstudy_mst,2020.2.10,Win32,60,60e99bd7bc9be7be49ca9171,60efc7cb0c55779792374d1a,,,,,D,,,,,,,,,,,,,,,2,1,13.2374,0,65,65,65,1,2,NEW,SIMILAR,,,,,,,,
,,,,,,,,,,,,,,,,TestWords/MO_DAY_PU.wav,,5ec79cbd44972a1fceed2719,2021-07-15_06h30.13.886,Agingstudy_mst,2020.2.10,Win32,60,60e99bd7bc9be7be49ca9171,60efc7cb0c55779792374d1a,,,,,D,,,,,,,,,,,,,,,2,1,6.0544,0,66,66,66,1,2,NEW,SIMILAR,,,,,,,,
,,,,,,,,,,,,,,,,TestWords/KAI_LAY_TA.wav,,5ec79cbd44972a1fceed2719,2021-07-15_06h30.13.886,Agingstudy_mst,2020.2.10,Win32,60,60e99bd7bc9be7be49ca9171,60efc7cb0c55779792374d1a,,,,,D,,,,,,,,,,,,,,,1,1,2.5113,0,67,67,67,1,1,OLD,OLD,,,,,,,,
,,,,,,,,,,,,,,,,TestWords/KO_SU_FAI.wav,,5ec79cbd44972a1fceed2719,2021-07-15_06h30.13.886,Agingstudy_mst,2020.2.10,Win32,60,60e99bd7bc9be7be49ca9171,60efc7cb0c55779792374d1a,,,,,D,,,,,,,,,,,,,,,1,1,10.7343,0,68,68,68,1,1,OLD,OLD,,,,,,,,
,,,,,,,,,,,,,,,,TestWords/RAY_PA_TI.wav,,5ec79cbd44972a1fceed2719,2021-07-15_06h30.13.886,Agingstudy_mst,2020.2.10,Win32,60,60e99bd7bc9be7be49ca9171,60efc7cb0c55779792374d1a,,,,,D,,,,,,,,,,,,,,,1,1,0.9026,0,69,69,69,1,1,OLD,OLD,,,,,,,,
,,,,,,,,,,,,,,,,TestWords/NU_CHAY_SO.wav,,5ec79cbd44972a1fceed2719,2021-07-15_06h30.13.886,Agingstudy_mst,2020.2.10,Win32,60,60e99bd7bc9be7be49ca9171,60efc7cb0c55779792374d1a,,,,,D,,,,,,,,,,,,,,,2,1,10.9703,0,70,70,70,1,2,NEW,NEW,,,,,,,,
,,,,,,,,,,,,,,,,TestWords/GA_MU_ZI.wav,,5ec79cbd44972a1fceed2719,2021-07-15_06h30.13.886,Agingstudy_mst,2020.2.10,Win32,60,60e99bd7bc9be7be49ca9171,60efc7cb0c55779792374d1a,,,,,D,,,,,,,,,,,,,,,1,1,0.8786,0,71,71,71,1,1,OLD,OLD,,,,,,,,
,,,,,,,,,,,,,,,,TestWords/DAI_RU_CHI.wav,,5ec79cbd44972a1fceed2719,2021-07-15_06h30.13.886,Agingstudy_mst,2020.2.10,Win32,60,60e99bd7bc9be7be49ca9171,60efc7cb0c55779792374d1a,,,,,D,,,,,,,,,,,,,,,1,1,0.6782,0,72,72,72,1,1,OLD,OLD,,,,,,,,
,,,,,,,,,,,,,,,,TestWords/SA_TAI_GI.wav,,5ec79cbd44972a1fceed2719,2021-07-15_06h30.13.886,Agingstudy_mst,2020.2.10,Win32,60,60e99bd7bc9be7be49ca9171,60efc7cb0c55779792374d1a,,,,,D,,,,,,,,,,,,,,,2,1,7.0447,0,73,73,73,1,2,NEW,SIMILAR,,,,,,,,
,,,,,,,,,,,,,,,,TestWords/PU_DAY_MO.wav,,5ec79cbd44972a1fceed2719,2021-07-15_06h30.13.886,Agingstudy_mst,2020.2.10,Win32,60,60e99bd7bc9be7be49ca9171,60efc7cb0c55779792374d1a,,,,,D,,,,,,,,,,,,,,,2,1,7.0893,0,74,74,74,1,2,NEW,SIMILAR,,,,,,,,
,,,,,,,,,,,,,,,,TestWords/KO_SU_FAI.wav,,5ec79cbd44972a1fceed2719,2021-07-15_06h30.13.886,Agingstudy_mst,2020.2.10,Win32,60,60e99bd7bc9be7be49ca9171,60efc7cb0c55779792374d1a,,,,,D,,,,,,,,,,,,,,,1,1,1.1369,0,75,75,75,1,1,OLD,OLD,,,,,,,,
,,,,,,,,,,,,,,,,TestWords/KAI_LAY_TA.wav,,5ec79cbd44972a1fceed2719,2021-07-15_06h30.13.886,Agingstudy_mst,2020.2.10,Win32,60,60e99bd7bc9be7be49ca9171,60efc7cb0c55779792374d1a,,,,,D,,,,,,,,,,,,,,,1,1,0.7921,0,76,76,76,1,1,OLD,OLD,,,,,,,,
,,,,,,,,,,,,,,,,TestWords/HA_SI_JAI.wav,,5ec79cbd44972a1fceed2719,2021-07-15_06h30.13.886,Agingstudy_mst,2020.2.10,Win32,60,60e99bd7bc9be7be49ca9171,60efc7cb0c55779792374d1a,,,,,D,,,,,,,,,,,,,,,2,1,5.8112,0,77,77,77,1,2,NEW,NEW,,,,,,,,
,,,,,,,,,,,,,,,,TestWords/RAY_PA_TI.wav,,5ec79cbd44972a1fceed2719,2021-07-15_06h30.13.886,Agingstudy_mst,2020.2.10,Win32,60,60e99bd7bc9be7be49ca9171,60efc7cb0c55779792374d1a,,,,,D,,,,,,,,,,,,,,,1,1,0.7735,0,78,78,78,1,1,OLD,OLD,,,,,,,,
,,,,,,,,,,,,,,,,TestWords/DAI_RU_CHI.wav,,5ec79cbd44972a1fceed2719,2021-07-15_06h30.13.886,Agingstudy_mst,2020.2.10,Win32,60,60e99bd7bc9be7be49ca9171,60efc7cb0c55779792374d1a,,,,,D,,,,,,,,,,,,,,,1,1,0.9703,0,79,79,79,1,1,OLD,OLD,,,,,,,,
,,,,,,,,,,,,,,,,TestWords/GA_MU_ZI.wav,,5ec79cbd44972a1fceed2719,2021-07-15_06h30.13.886,Agingstudy_mst,2020.2.10,Win32,60,60e99bd7bc9be7be49ca9171,60efc7cb0c55779792374d1a,,,,,D,,,,,,,,,,,,,,,1,1,0.9589,0,80,80,80,1,1,OLD,OLD,,,,,,,,
,,,,,,,,,,,,,,,,TestWords/SA_GI_TAI.wav,,5ec79cbd44972a1fceed2719,2021-07-15_06h30.13.886,Agingstudy_mst,2020.2.10,Win32,60,60e99bd7bc9be7be49ca9171,60efc7cb0c55779792374d1a,,,,,D,,,,,,,,,,,,,,,2,1,8.7385,0,81,81,81,1,2,NEW,SIMILAR,,,,,,,,
,,,,,,,,,,,,,,,,TestWords/KO_SU_FAI.wav,,5ec79cbd44972a1fceed2719,2021-07-15_06h30.13.886,Agingstudy_mst,2020.2.10,Win32,60,60e99bd7bc9be7be49ca9171,60efc7cb0c55779792374d1a,,,,,D,,,,,,,,,,,,,,,1,1,2.0402,0,82,82,82,1,1,OLD,OLD,,,,,,,,
,,,,,,,,,,,,,,,,TestWords/KAI_LAY_TA.wav,,5ec79cbd44972a1fceed2719,2021-07-15_06h30.13.886,Agingstudy_mst,2020.2.10,Win32,60,60e99bd7bc9be7be49ca9171,60efc7cb0c55779792374d1a,,,,,D,,,,,,,,,,,,,,,1,1,2.1933,0,83,83,83,1,1,OLD,OLD,,,,,,,,
,,,,,,,,,,,,,,,,TestWords/PU_MO_DAY.wav,,5ec79cbd44972a1fceed2719,2021-07-15_06h30.13.886,Agingstudy_mst,2020.2.10,Win32,60,60e99bd7bc9be7be49ca9171,60efc7cb0c55779792374d1a,,,,,D,,,,,,,,,,,,,,,2,1,9.7174,0,84,84,84,1,2,NEW,SIMILAR,,,,,,,,
,,,,,,,,,,,,,,,,TestWords/RAY_PA_TI.wav,,5ec79cbd44972a1fceed2719,2021-07-15_06h30.13.886,Agingstudy_mst,2020.2.10,Win32,60,60e99bd7bc9be7be49ca9171,60efc7cb0c55779792374d1a,,,,,D,,,,,,,,,,,,,,,1,1,0.7316,0,85,85,85,1,1,OLD,OLD,,,,,,,,
,,,,,,,,,,,,,,,,TestWords/HI_NAY_VA.wav,,5ec79cbd44972a1fceed2719,2021-07-15_06h30.13.886,Agingstudy_mst,2020.2.10,Win32,60,60e99bd7bc9be7be49ca9171,60efc7cb0c55779792374d1a,,,,,D,,,,,,,,,,,,,,,2,1,5.6347,0,86,86,86,1,2,NEW,NEW,,,,,,,,
,,,,,,,,,,,,,,,,TestWords/DAI_RU_CHI.wav,,5ec79cbd44972a1fceed2719,2021-07-15_06h30.13.886,Agingstudy_mst,2020.2.10,Win32,60,60e99bd7bc9be7be49ca9171,60efc7cb0c55779792374d1a,,,,,D,,,,,,,,,,,,,,,1,1,0.9625,0,87,87,87,1,1,OLD,OLD,,,,,,,,
,,,,,,,,,,,,,,,,TestWords/TAI_GI_SA.wav,,5ec79cbd44972a1fceed2719,2021-07-15_06h30.13.886,Agingstudy_mst,2020.2.10,Win32,60,60e99bd7bc9be7be49ca9171,60efc7cb0c55779792374d1a,,,,,D,,,,,,,,,,,,,,,2,1,13.3113,0,88,88,88,1,2,NEW,SIMILAR,,,,,,,,
,,,,,,,,,,,,,,,,TestWords/KO_SU_FAI.wav,,5ec79cbd44972a1fceed2719,2021-07-15_06h30.13.886,Agingstudy_mst,2020.2.10,Win32,60,60e99bd7bc9be7be49ca9171,60efc7cb0c55779792374d1a,,,,,D,,,,,,,,,,,,,,,2,0,13.8717,0,89,89,89,1,1,OLD,OLD,,,,,,,,
,,,,,,,,,,,,,,,,TestWords/GA_MU_ZI.wav,,5ec79cbd44972a1fceed2719,2021-07-15_06h30.13.886,Agingstudy_mst,2020.2.10,Win32,60,60e99bd7bc9be7be49ca9171,60efc7cb0c55779792374d1a,,,,,D,,,,,,,,,,,,,,,1,1,1.3983,0,90,90,90,1,1,OLD,OLD,,,,,,,,
,,,,,,,,,,,,,,,,TestWords/PAI_LU_WA.wav,,5ec79cbd44972a1fceed2719,2021-07-15_06h30.13.886,Agingstudy_mst,2020.2.10,Win32,60,60e99bd7bc9be7be49ca9171,60efc7cb0c55779792374d1a,,,,,D,,,,,,,,,,,,,,,2,1,8.5548,0,91,91,91,1,2,NEW,NEW,,,,,,,,
,,,,,,,,,,,,,,,,TestWords/KAI_LAY_TA.wav,,5ec79cbd44972a1fceed2719,2021-07-15_06h30.13.886,Agingstudy_mst,2020.2.10,Win32,60,60e99bd7bc9be7be49ca9171,60efc7cb0c55779792374d1a,,,,,D,,,,,,,,,,,,,,,1,1,1.9032,0,92,92,92,1,1,OLD,OLD,,,,,,,,
,,,,,,,,,,,,,,,,TestWords/MO_PU_DAY.wav,,5ec79cbd44972a1fceed2719,2021-07-15_06h30.13.886,Agingstudy_mst,2020.2.10,Win32,60,60e99bd7bc9be7be49ca9171,60efc7cb0c55779792374d1a,,,,,D,,,,,,,,,,,,,,,2,1,8.3174,0,93,93,93,1,2,NEW,SIMILAR,,,,,,,,
,,,,,,,,,,,,,,,,TestWords/KO_SU_FAI.wav,,5ec79cbd44972a1fceed2719,2021-07-15_06h30.13.886,Agingstudy_mst,2020.2.10,Win32,60,60e99bd7bc9be7be49ca9171,60efc7cb0c55779792374d1a,,,,,D,,,,,,,,,,,,,,,1,1,0.9874,0,94,94,94,1,1,OLD,OLD,,,,,,,,
,,,,,,,,,,,,,,,,TestWords/GI_SA_TAI.wav,,5ec79cbd44972a1fceed2719,2021-07-15_06h30.13.886,Agingstudy_mst,2020.2.10,Win32,60,60e99bd7bc9be7be49ca9171,60efc7cb0c55779792374d1a,,,,,D,,,,,,,,,,,,,,,2,1,14.9981,0,95,95,95,1,2,NEW,SIMILAR,,,,,,,,
,,,,,,,,,,,,,,,,TestWords/HO_NAY_VA.wav,,5ec79cbd44972a1fceed2719,2021-07-15_06h30.13.886,Agingstudy_mst,2020.2.10,Win32,60,60e99bd7bc9be7be49ca9171,60efc7cb0c55779792374d1a,,,,,D,,,,,,,,,,,,,,,2,1,5.2258,0,96,96,96,1,2,NEW,NEW,,,,,,,,
,,,,,,,,,,,,,,,,TestWords/GU_CHAI_PI.wav,,5ec79cbd44972a1fceed2719,2021-07-15_06h30.13.886,Agingstudy_mst,2020.2.10,Win32,60,60e99bd7bc9be7be49ca9171,60efc7cb0c55779792374d1a,,,,,D,,,,,,,,,,,,,,,2,1,10.069,0,97,97,97,1,2,NEW,NEW,,,,,,,,
,,,,,,,,,,,,,,,,TestWords/KO_SU_FAI.wav,,5ec79cbd44972a1fceed2719,2021-07-15_06h30.13.886,Agingstudy_mst,2020.2.10,Win32,60,60e99bd7bc9be7be49ca9171,60efc7cb0c55779792374d1a,,,,,D,,,,,,,,,,,,,,,1,1,2.4214,0,98,98,98,1,1,OLD,OLD,,,,,,,,
,,,,,,,,,,,,,,,,TestWords/WAI_RO_JU.wav,,5ec79cbd44972a1fceed2719,2021-07-15_06h30.13.886,Agingstudy_mst,2020.2.10,Win32,60,60e99bd7bc9be7be49ca9171,60efc7cb0c55779792374d1a,,,,,D,,,,,,,,,,,,,,,2,1,5.0077,0,99,99,99,1,2,NEW,NEW,,,,,,,,
,,,,,,,,,,,,,,,,,,5ec79cbd44972a1fceed2719,2021-07-15_06h30.13.886,Agingstudy_mst,2020.2.10,Win32,60,60e99bd7bc9be7be49ca9171,60efc7cb0c55779792374d1a,,,,,,,,,,,,,,,,,,,,,,,,,,,,,,,0,0,0,0,1,,,
,,,,,,,,,,,,,,,,,,5ec79cbd44972a1fceed2719,2021-07-15_06h30.13.886,Agingstudy_mst,2020.2.10,Win32,60,60e99bd7bc9be7be49ca9171,60efc7cb0c55779792374d1a,,,,,,,,,,,,,,,,,,,,,,,,,,,,,,,,,,,,return,10.2917,
