Welcome0Continue.keys,Welcome0Continue.rt,SoundCheckBegin.keys,SoundCheckBegin.rt,SoundCheckEndKey.keys,SoundCheckEndKey.rt,HeadphoneContinueKey.keys,HeadphoneContinueKey.rt,CheckResp.keys,CheckResp.corr,CheckResp.rt,HeadphoneLoop.thisRepN,HeadphoneLoop.thisTrialN,HeadphoneLoop.thisN,HeadphoneLoop.thisIndex,HeadphoneLoop.ran,File,Correct,participant,date,expName,psychopyVersion,OS,frameRate,STUDY_ID,SESSION_ID,ContinueButton.keys,ContinueButton.rt,Condition,ExposureIntroKey.keys,ExposureIntroKey.rt,ExposureLoop.thisRepN,ExposureLoop.thisTrialN,ExposureLoop.thisN,ExposureLoop.thisIndex,ExposureLoop.ran,Position,Sound,SyllableFile,PauseCheckKey.keys,PauseCheckKey.rt,PauseOnOff.thisRepN,PauseOnOff.thisTrialN,PauseOnOff.thisN,PauseOnOff.thisIndex,PauseOnOff.ran
space,4.7282,space,5.9019,space,17.0729,space,4.1303,3,1,1.3897,0,0,0,4,1,Headphone/t3_1.wav,3,6030cf35e7fec0f5c6d201c5,2021-07-15_06h15.12.021,Agingstudy_sl,2020.2.10,Win32,60,60e99d3dbd08ab8815ee63dc,60efc36f4febab2015ba77c2,,,,,,,,,,,,,,,,,,,,
,,,,,,,,2,1,0.3022,0,1,1,3,1,Headphone/t2_2.wav,2,6030cf35e7fec0f5c6d201c5,2021-07-15_06h15.12.021,Agingstudy_sl,2020.2.10,Win32,60,60e99d3dbd08ab8815ee63dc,60efc36f4febab2015ba77c2,,,,,,,,,,,,,,,,,,,,
,,,,,,,,1,1,0.4713,0,2,2,1,1,Headphone/t1_2.wav,1,6030cf35e7fec0f5c6d201c5,2021-07-15_06h15.12.021,Agingstudy_sl,2020.2.10,Win32,60,60e99d3dbd08ab8815ee63dc,60efc36f4febab2015ba77c2,,,,,,,,,,,,,,,,,,,,
,,,,,,,,1,1,0.3035,0,3,3,0,1,Headphone/t1_1.wav,1,6030cf35e7fec0f5c6d201c5,2021-07-15_06h15.12.021,Agingstudy_sl,2020.2.10,Win32,60,60e99d3dbd08ab8815ee63dc,60efc36f4febab2015ba77c2,,,,,,,,,,,,,,,,,,,,
,,,,,,,,2,1,0.1561,0,4,4,2,1,Headphone/t2_1.wav,2,6030cf35e7fec0f5c6d201c5,2021-07-15_06h15.12.021,Agingstudy_sl,2020.2.10,Win32,60,60e99d3dbd08ab8815ee63dc,60efc36f4febab2015ba77c2,,,,,,,,,,,,,,,,,,,,
,,,,,,,,3,1,0.0877,0,5,5,5,1,Headphone/t3_2.wav,3,6030cf35e7fec0f5c6d201c5,2021-07-15_06h15.12.021,Agingstudy_sl,2020.2.10,Win32,60,60e99d3dbd08ab8815ee63dc,60efc36f4febab2015ba77c2,,,,,,,,,,,,,,,,,,,,
,,,,,,,,,,,,,,,,,,6030cf35e7fec0f5c6d201c5,2021-07-15_06h15.12.021,Agingstudy_sl,2020.2.10,Win32,60,60e99d3dbd08ab8815ee63dc,60efc36f4febab2015ba77c2,space,13.9947,2,space,24.6254,0,0,0,0,1,1,ni,SL_Sounds/ni.wav,,,,,,,
,,,,,,,,,,,,,,,,,,6030cf35e7fec0f5c6d201c5,2021-07-15_06h15.12.021,Agingstudy_sl,2020.2.10,Win32,60,60e99d3dbd08ab8815ee63dc,60efc36f4febab2015ba77c2,,,,,,0,1,1,1,1,2,ru,SL_Sounds/ru.wav,,,,,,,
,,,,,,,,,,,,,,,,,,6030cf35e7fec0f5c6d201c5,2021-07-15_06h15.12.021,Agingstudy_sl,2020.2.10,Win32,60,60e99d3dbd08ab8815ee63dc,60efc36f4febab2015ba77c2,,,,,,0,2,2,2,1,3,pu,SL_Sounds/pu.wav,,,,,,,
,,,,,,,,,,,,,,,,,,6030cf35e7fec0f5c6d201c5,2021-07-15_06h15.12.021,Agingstudy_sl,2020.2.10,Win32,60,60e99d3dbd08ab8815ee63dc,60efc36f4febab2015ba77c2,,,,,,0,3,3,3,1,1,su,SL_Sounds/su.wav,,,,,,,
,,,,,,,,,,,,,,,,,,6030cf35e7fec0f5c6d201c5,2021-07-15_06h15.12.021,Agingstudy_sl,2020.2.10,Win32,60,60e99d3dbd08ab8815ee63dc,60efc36f4febab2015ba77c2,,,,,,0,4,4,4,1,2,fe,SL_Sounds/fe.wav,,,,,,,
,,,,,,,,,,,,,,,,,,6030cf35e7fec0f5c6d201c5,2021-07-15_06h15.12.021,Agingstudy_sl,2020.2.10,Win32,60,60e99d3dbd08ab8815ee63dc,60efc36f4febab2015ba77c2,,,,,,0,5,5,5,1,3,ti,SL_Sounds/ti.wav,,,,,,,
,,,,,,,,,,,,,,,,,,6030cf35e7fec0f5c6d201c5,2021-07-15_06h15.12.021,Agingstudy_sl,2020.2.10,Win32,60,60e99d3dbd08ab8815ee63dc,60efc36f4febab2015ba77c2,,,,,,0,6,6,6,1,1,me,SL_Sounds/me.wav,,,,,,,
,,,,,,,,,,,,,,,,,,6030cf35e7fec0f5c6d201c5,2021-07-15_06h15.12.021,Agingstudy_sl,2020.2.10,Win32,60,60e99d3dbd08ab8815ee63dc,60efc36f4febab2015ba77c2,,,,,,0,7,7,7,1,2,re,SL_Sounds/re.wav,,,,,,,
,,,,,,,,,,,,,,,,,,6030cf35e7fec0f5c6d201c5,2021-07-15_06h15.12.021,Agingstudy_sl,2020.2.10,Win32,60,60e99d3dbd08ab8815ee63dc,60efc36f4febab2015ba77c2,,,,,,0,8,8,8,1,3,ge,SL_Sounds/ge.wav,,,,,,,
,,,,,,,,,,,,,,,,,,6030cf35e7fec0f5c6d201c5,2021-07-15_06h15.12.021,Agingstudy_sl,2020.2.10,Win32,60,60e99d3dbd08ab8815ee63dc,60efc36f4febab2015ba77c2,,,,,,0,9,9,9,1,1,ni,SL_Sounds/ni.wav,,,,,,,
,,,,,,,,,,,,,,,,,,6030cf35e7fec0f5c6d201c5,2021-07-15_06h15.12.021,Agingstudy_sl,2020.2.10,Win32,60,60e99d3dbd08ab8815ee63dc,60efc36f4febab2015ba77c2,,,,,,0,10,10,10,1,2,ru,SL_Sounds/ru.wav,,,,,,,
,,,,,,,,,,,,,,,,,,6030cf35e7fec0f5c6d201c5,2021-07-15_06h15.12.021,Agingstudy_sl,2020.2.10,Win32,60,60e99d3dbd08ab8815ee63dc,60efc36f4febab2015ba77c2,,,,,,0,11,11,11,1,3,pu,SL_Sounds/pu.wav,,,,,,,
,,,,,,,,,,,,,,,,,,6030cf35e7fec0f5c6d201c5,2021-07-15_06h15.12.021,Agingstudy_sl,2020.2.10,Win32,60,60e99d3dbd08ab8815ee63dc,60efc36f4febab2015ba77c2,,,,,,0,12,12,12,1,1,me,SL_Sounds/me.wav,,,,,,,
,,,,,,,,,,,,,,,,,,6030cf35e7fec0f5c6d201c5,2021-07-15_06h15.12.021,Agingstudy_sl,2020.2.10,Win32,60,60e99d3dbd08ab8815ee63dc,60efc36f4febab2015ba77c2,,,,,,0,13,13,13,1,2,re,SL_Sounds/re.wav,,,,,,,
,,,,,,,,,,,,,,,,,,6030cf35e7fec0f5c6d201c5,2021-07-15_06h15.12.021,Agingstudy_sl,2020.2.10,Win32,60,60e99d3dbd08ab8815ee63dc,60efc36f4febab2015ba77c2,,,,,,0,14,14,14,1,3,ge,SL_Sounds/ge.wav,,,,,,,
,,,,,,,,,,,,,,,,,,6030cf35e7fec0f5c6d201c5,2021-07-15_06h15.12.021,Agingstudy_sl,2020.2.10,Win32,60,60e99d3dbd08ab8815ee63dc,60efc36f4febab2015ba77c2,,,,,,0,15,15,15,1,1,ni,SL_Sounds/ni.wav,,,,,,,
,,,,,,,,,,,,,,,,,,6030cf35e7fec0f5c6d201c5,2021-07-15_06h15.12.021,Agingstudy_sl,2020.2.10,Win32,60,60e99d3dbd08ab8815ee63dc,60efc36f4febab2015ba77c2,,,,,,0,16,16,16,1,2,ru,SL_Sounds/ru.wav,,,,,,,
,,,,,,,,,,,,,,,,,,6030cf35e7fec0f5c6d201c5,2021-07-15_06h15.12.021,Agingstudy_sl,2020.2.10,Win32,60,60e99d3dbd08ab8815ee63dc,60efc36f4febab2015ba77c2,,,,,,0,17,17,17,1,3,pu,SL_Sounds/pu.wav,,,,,,,
,,,,,,,,,,,,,,,,,,6030cf35e7fec0f5c6d201c5,2021-07-15_06h15.12.021,Agingstudy_sl,2020.2.10,Win32,60,60e99d3dbd08ab8815ee63dc,60efc36f4febab2015ba77c2,,,,,,0,18,18,18,1,1,ko,SL_Sounds/ko.wav,,,,,,,
,,,,,,,,,,,,,,,,,,6030cf35e7fec0f5c6d201c5,2021-07-15_06h15.12.021,Agingstudy_sl,2020.2.10,Win32,60,60e99d3dbd08ab8815ee63dc,60efc36f4febab2015ba77c2,,,,,,0,19,19,19,1,2,ta,SL_Sounds/ta.wav,,,,,,,
,,,,,,,,,,,,,,,,,,6030cf35e7fec0f5c6d201c5,2021-07-15_06h15.12.021,Agingstudy_sl,2020.2.10,Win32,60,60e99d3dbd08ab8815ee63dc,60efc36f4febab2015ba77c2,,,,,,0,20,20,20,1,3,fu,SL_Sounds/fu.wav,,,,,,,
,,,,,,,,,,,,,,,,,,6030cf35e7fec0f5c6d201c5,2021-07-15_06h15.12.021,Agingstudy_sl,2020.2.10,Win32,60,60e99d3dbd08ab8815ee63dc,60efc36f4febab2015ba77c2,,,,,,0,21,21,21,1,1,ni,SL_Sounds/ni.wav,,,,,,,
,,,,,,,,,,,,,,,,,,6030cf35e7fec0f5c6d201c5,2021-07-15_06h15.12.021,Agingstudy_sl,2020.2.10,Win32,60,60e99d3dbd08ab8815ee63dc,60efc36f4febab2015ba77c2,,,,,,0,22,22,22,1,2,ru,SL_Sounds/ru.wav,,,,,,,
,,,,,,,,,,,,,,,,,,6030cf35e7fec0f5c6d201c5,2021-07-15_06h15.12.021,Agingstudy_sl,2020.2.10,Win32,60,60e99d3dbd08ab8815ee63dc,60efc36f4febab2015ba77c2,,,,,,0,23,23,23,1,3,pu,SL_Sounds/pu.wav,,,,,,,
,,,,,,,,,,,,,,,,,,6030cf35e7fec0f5c6d201c5,2021-07-15_06h15.12.021,Agingstudy_sl,2020.2.10,Win32,60,60e99d3dbd08ab8815ee63dc,60efc36f4febab2015ba77c2,,,,,,0,24,24,24,1,1,ko,SL_Sounds/ko.wav,,,,,,,
,,,,,,,,,,,,,,,,,,6030cf35e7fec0f5c6d201c5,2021-07-15_06h15.12.021,Agingstudy_sl,2020.2.10,Win32,60,60e99d3dbd08ab8815ee63dc,60efc36f4febab2015ba77c2,,,,,,0,25,25,25,1,2,ta,SL_Sounds/ta.wav,,,,,,,
,,,,,,,,,,,,,,,,,,6030cf35e7fec0f5c6d201c5,2021-07-15_06h15.12.021,Agingstudy_sl,2020.2.10,Win32,60,60e99d3dbd08ab8815ee63dc,60efc36f4febab2015ba77c2,,,,,,0,26,26,26,1,3,fu,SL_Sounds/fu.wav,,,,,,,
,,,,,,,,,,,,,,,,,,6030cf35e7fec0f5c6d201c5,2021-07-15_06h15.12.021,Agingstudy_sl,2020.2.10,Win32,60,60e99d3dbd08ab8815ee63dc,60efc36f4febab2015ba77c2,,,,,,0,27,27,27,1,1,ni,SL_Sounds/ni.wav,,,,,,,
,,,,,,,,,,,,,,,,,,6030cf35e7fec0f5c6d201c5,2021-07-15_06h15.12.021,Agingstudy_sl,2020.2.10,Win32,60,60e99d3dbd08ab8815ee63dc,60efc36f4febab2015ba77c2,,,,,,0,28,28,28,1,2,ru,SL_Sounds/ru.wav,,,,,,,
,,,,,,,,,,,,,,,,,,6030cf35e7fec0f5c6d201c5,2021-07-15_06h15.12.021,Agingstudy_sl,2020.2.10,Win32,60,60e99d3dbd08ab8815ee63dc,60efc36f4febab2015ba77c2,,,,,,0,29,29,29,1,3,pu,SL_Sounds/pu.wav,,,,,,,
,,,,,,,,,,,,,,,,,,6030cf35e7fec0f5c6d201c5,2021-07-15_06h15.12.021,Agingstudy_sl,2020.2.10,Win32,60,60e99d3dbd08ab8815ee63dc,60efc36f4febab2015ba77c2,,,,,,0,30,30,30,1,1,me,SL_Sounds/me.wav,,,,,,,
,,,,,,,,,,,,,,,,,,6030cf35e7fec0f5c6d201c5,2021-07-15_06h15.12.021,Agingstudy_sl,2020.2.10,Win32,60,60e99d3dbd08ab8815ee63dc,60efc36f4febab2015ba77c2,,,,,,0,31,31,31,1,2,re,SL_Sounds/re.wav,,,,,,,
,,,,,,,,,,,,,,,,,,6030cf35e7fec0f5c6d201c5,2021-07-15_06h15.12.021,Agingstudy_sl,2020.2.10,Win32,60,60e99d3dbd08ab8815ee63dc,60efc36f4febab2015ba77c2,,,,,,0,32,32,32,1,3,ge,SL_Sounds/ge.wav,,,,,,,
,,,,,,,,,,,,,,,,,,6030cf35e7fec0f5c6d201c5,2021-07-15_06h15.12.021,Agingstudy_sl,2020.2.10,Win32,60,60e99d3dbd08ab8815ee63dc,60efc36f4febab2015ba77c2,,,,,,0,33,33,33,1,1,su,SL_Sounds/su.wav,,,,,,,
,,,,,,,,,,,,,,,,,,6030cf35e7fec0f5c6d201c5,2021-07-15_06h15.12.021,Agingstudy_sl,2020.2.10,Win32,60,60e99d3dbd08ab8815ee63dc,60efc36f4febab2015ba77c2,,,,,,0,34,34,34,1,2,fe,SL_Sounds/fe.wav,,,,,,,
,,,,,,,,,,,,,,,,,,6030cf35e7fec0f5c6d201c5,2021-07-15_06h15.12.021,Agingstudy_sl,2020.2.10,Win32,60,60e99d3dbd08ab8815ee63dc,60efc36f4febab2015ba77c2,,,,,,0,35,35,35,1,3,ti,SL_Sounds/ti.wav,,,,,,,
,,,,,,,,,,,,,,,,,,6030cf35e7fec0f5c6d201c5,2021-07-15_06h15.12.021,Agingstudy_sl,2020.2.10,Win32,60,60e99d3dbd08ab8815ee63dc,60efc36f4febab2015ba77c2,,,,,,0,36,36,36,1,1,ni,SL_Sounds/ni.wav,,,,,,,
,,,,,,,,,,,,,,,,,,6030cf35e7fec0f5c6d201c5,2021-07-15_06h15.12.021,Agingstudy_sl,2020.2.10,Win32,60,60e99d3dbd08ab8815ee63dc,60efc36f4febab2015ba77c2,,,,,,0,37,37,37,1,2,ru,SL_Sounds/ru.wav,,,,,,,
,,,,,,,,,,,,,,,,,,6030cf35e7fec0f5c6d201c5,2021-07-15_06h15.12.021,Agingstudy_sl,2020.2.10,Win32,60,60e99d3dbd08ab8815ee63dc,60efc36f4febab2015ba77c2,,,,,,0,38,38,38,1,3,pu,SL_Sounds/pu.wav,,,,,,,
,,,,,,,,,,,,,,,,,,6030cf35e7fec0f5c6d201c5,2021-07-15_06h15.12.021,Agingstudy_sl,2020.2.10,Win32,60,60e99d3dbd08ab8815ee63dc,60efc36f4febab2015ba77c2,,,,,,0,39,39,39,1,1,ko,SL_Sounds/ko.wav,,,,,,,
,,,,,,,,,,,,,,,,,,6030cf35e7fec0f5c6d201c5,2021-07-15_06h15.12.021,Agingstudy_sl,2020.2.10,Win32,60,60e99d3dbd08ab8815ee63dc,60efc36f4febab2015ba77c2,,,,,,0,40,40,40,1,2,ta,SL_Sounds/ta.wav,,,,,,,
,,,,,,,,,,,,,,,,,,6030cf35e7fec0f5c6d201c5,2021-07-15_06h15.12.021,Agingstudy_sl,2020.2.10,Win32,60,60e99d3dbd08ab8815ee63dc,60efc36f4febab2015ba77c2,,,,,,0,41,41,41,1,3,fu,SL_Sounds/fu.wav,,,,,,,
,,,,,,,,,,,,,,,,,,6030cf35e7fec0f5c6d201c5,2021-07-15_06h15.12.021,Agingstudy_sl,2020.2.10,Win32,60,60e99d3dbd08ab8815ee63dc,60efc36f4febab2015ba77c2,,,,,,0,42,42,42,1,1,me,SL_Sounds/me.wav,,,,,,,
,,,,,,,,,,,,,,,,,,6030cf35e7fec0f5c6d201c5,2021-07-15_06h15.12.021,Agingstudy_sl,2020.2.10,Win32,60,60e99d3dbd08ab8815ee63dc,60efc36f4febab2015ba77c2,,,,,,0,43,43,43,1,2,re,SL_Sounds/re.wav,,,,,,,
,,,,,,,,,,,,,,,,,,6030cf35e7fec0f5c6d201c5,2021-07-15_06h15.12.021,Agingstudy_sl,2020.2.10,Win32,60,60e99d3dbd08ab8815ee63dc,60efc36f4febab2015ba77c2,,,,,,0,44,44,44,1,3,ge,SL_Sounds/ge.wav,,,,,,,
,,,,,,,,,,,,,,,,,,6030cf35e7fec0f5c6d201c5,2021-07-15_06h15.12.021,Agingstudy_sl,2020.2.10,Win32,60,60e99d3dbd08ab8815ee63dc,60efc36f4febab2015ba77c2,,,,,,0,45,45,45,1,1,su,SL_Sounds/su.wav,,,,,,,
,,,,,,,,,,,,,,,,,,6030cf35e7fec0f5c6d201c5,2021-07-15_06h15.12.021,Agingstudy_sl,2020.2.10,Win32,60,60e99d3dbd08ab8815ee63dc,60efc36f4febab2015ba77c2,,,,,,0,46,46,46,1,2,fe,SL_Sounds/fe.wav,,,,,,,
,,,,,,,,,,,,,,,,,,6030cf35e7fec0f5c6d201c5,2021-07-15_06h15.12.021,Agingstudy_sl,2020.2.10,Win32,60,60e99d3dbd08ab8815ee63dc,60efc36f4febab2015ba77c2,,,,,,0,47,47,47,1,3,ti,SL_Sounds/ti.wav,,,,,,,
,,,,,,,,,,,,,,,,,,6030cf35e7fec0f5c6d201c5,2021-07-15_06h15.12.021,Agingstudy_sl,2020.2.10,Win32,60,60e99d3dbd08ab8815ee63dc,60efc36f4febab2015ba77c2,,,,,,0,48,48,48,1,1,me,SL_Sounds/me.wav,,,,,,,
,,,,,,,,,,,,,,,,,,6030cf35e7fec0f5c6d201c5,2021-07-15_06h15.12.021,Agingstudy_sl,2020.2.10,Win32,60,60e99d3dbd08ab8815ee63dc,60efc36f4febab2015ba77c2,,,,,,0,49,49,49,1,2,re,SL_Sounds/re.wav,,,,,,,
,,,,,,,,,,,,,,,,,,6030cf35e7fec0f5c6d201c5,2021-07-15_06h15.12.021,Agingstudy_sl,2020.2.10,Win32,60,60e99d3dbd08ab8815ee63dc,60efc36f4febab2015ba77c2,,,,,,0,50,50,50,1,3,ge,SL_Sounds/ge.wav,,,,,,,
,,,,,,,,,,,,,,,,,,6030cf35e7fec0f5c6d201c5,2021-07-15_06h15.12.021,Agingstudy_sl,2020.2.10,Win32,60,60e99d3dbd08ab8815ee63dc,60efc36f4febab2015ba77c2,,,,,,0,51,51,51,1,1,su,SL_Sounds/su.wav,,,,,,,
,,,,,,,,,,,,,,,,,,6030cf35e7fec0f5c6d201c5,2021-07-15_06h15.12.021,Agingstudy_sl,2020.2.10,Win32,60,60e99d3dbd08ab8815ee63dc,60efc36f4febab2015ba77c2,,,,,,0,52,52,52,1,2,fe,SL_Sounds/fe.wav,,,,,,,
,,,,,,,,,,,,,,,,,,6030cf35e7fec0f5c6d201c5,2021-07-15_06h15.12.021,Agingstudy_sl,2020.2.10,Win32,60,60e99d3dbd08ab8815ee63dc,60efc36f4febab2015ba77c2,,,,,,0,53,53,53,1,3,ti,SL_Sounds/ti.wav,,,,,,,
,,,,,,,,,,,,,,,,,,6030cf35e7fec0f5c6d201c5,2021-07-15_06h15.12.021,Agingstudy_sl,2020.2.10,Win32,60,60e99d3dbd08ab8815ee63dc,60efc36f4febab2015ba77c2,,,,,,0,54,54,54,1,1,ni,SL_Sounds/ni.wav,,,,,,,
,,,,,,,,,,,,,,,,,,6030cf35e7fec0f5c6d201c5,2021-07-15_06h15.12.021,Agingstudy_sl,2020.2.10,Win32,60,60e99d3dbd08ab8815ee63dc,60efc36f4febab2015ba77c2,,,,,,0,55,55,55,1,2,ru,SL_Sounds/ru.wav,,,,,,,
,,,,,,,,,,,,,,,,,,6030cf35e7fec0f5c6d201c5,2021-07-15_06h15.12.021,Agingstudy_sl,2020.2.10,Win32,60,60e99d3dbd08ab8815ee63dc,60efc36f4febab2015ba77c2,,,,,,,,,,,,,,space,0.4197,0,0,0,0,1
,,,,,,,,,,,,,,,,,,6030cf35e7fec0f5c6d201c5,2021-07-15_06h15.12.021,Agingstudy_sl,2020.2.10,Win32,60,60e99d3dbd08ab8815ee63dc,60efc36f4febab2015ba77c2,,,,,,0,56,56,56,1,3,pu,SL_Sounds/pu.wav,,,,,,,
,,,,,,,,,,,,,,,,,,6030cf35e7fec0f5c6d201c5,2021-07-15_06h15.12.021,Agingstudy_sl,2020.2.10,Win32,60,60e99d3dbd08ab8815ee63dc,60efc36f4febab2015ba77c2,,,,,,0,57,57,57,1,1,su,SL_Sounds/su.wav,,,,,,,
,,,,,,,,,,,,,,,,,,6030cf35e7fec0f5c6d201c5,2021-07-15_06h15.12.021,Agingstudy_sl,2020.2.10,Win32,60,60e99d3dbd08ab8815ee63dc,60efc36f4febab2015ba77c2,,,,,,0,58,58,58,1,2,fe,SL_Sounds/fe.wav,,,,,,,
,,,,,,,,,,,,,,,,,,6030cf35e7fec0f5c6d201c5,2021-07-15_06h15.12.021,Agingstudy_sl,2020.2.10,Win32,60,60e99d3dbd08ab8815ee63dc,60efc36f4febab2015ba77c2,,,,,,0,59,59,59,1,3,ti,SL_Sounds/ti.wav,,,,,,,
,,,,,,,,,,,,,,,,,,6030cf35e7fec0f5c6d201c5,2021-07-15_06h15.12.021,Agingstudy_sl,2020.2.10,Win32,60,60e99d3dbd08ab8815ee63dc,60efc36f4febab2015ba77c2,,,,,,0,60,60,60,1,1,ni,SL_Sounds/ni.wav,,,,,,,
,,,,,,,,,,,,,,,,,,6030cf35e7fec0f5c6d201c5,2021-07-15_06h15.12.021,Agingstudy_sl,2020.2.10,Win32,60,60e99d3dbd08ab8815ee63dc,60efc36f4febab2015ba77c2,,,,,,0,61,61,61,1,2,ru,SL_Sounds/ru.wav,,,,,,,
,,,,,,,,,,,,,,,,,,6030cf35e7fec0f5c6d201c5,2021-07-15_06h15.12.021,Agingstudy_sl,2020.2.10,Win32,60,60e99d3dbd08ab8815ee63dc,60efc36f4febab2015ba77c2,,,,,,0,62,62,62,1,3,pu,SL_Sounds/pu.wav,,,,,,,
,,,,,,,,,,,,,,,,,,6030cf35e7fec0f5c6d201c5,2021-07-15_06h15.12.021,Agingstudy_sl,2020.2.10,Win32,60,60e99d3dbd08ab8815ee63dc,60efc36f4febab2015ba77c2,,,,,,0,63,63,63,1,1,ko,SL_Sounds/ko.wav,,,,,,,
,,,,,,,,,,,,,,,,,,6030cf35e7fec0f5c6d201c5,2021-07-15_06h15.12.021,Agingstudy_sl,2020.2.10,Win32,60,60e99d3dbd08ab8815ee63dc,60efc36f4febab2015ba77c2,,,,,,0,64,64,64,1,2,ta,SL_Sounds/ta.wav,,,,,,,
,,,,,,,,,,,,,,,,,,6030cf35e7fec0f5c6d201c5,2021-07-15_06h15.12.021,Agingstudy_sl,2020.2.10,Win32,60,60e99d3dbd08ab8815ee63dc,60efc36f4febab2015ba77c2,,,,,,0,65,65,65,1,3,fu,SL_Sounds/fu.wav,,,,,,,
,,,,,,,,,,,,,,,,,,6030cf35e7fec0f5c6d201c5,2021-07-15_06h15.12.021,Agingstudy_sl,2020.2.10,Win32,60,60e99d3dbd08ab8815ee63dc,60efc36f4febab2015ba77c2,,,,,,0,66,66,66,1,1,su,SL_Sounds/su.wav,,,,,,,
,,,,,,,,,,,,,,,,,,6030cf35e7fec0f5c6d201c5,2021-07-15_06h15.12.021,Agingstudy_sl,2020.2.10,Win32,60,60e99d3dbd08ab8815ee63dc,60efc36f4febab2015ba77c2,,,,,,0,67,67,67,1,2,fe,SL_Sounds/fe.wav,,,,,,,
,,,,,,,,,,,,,,,,,,6030cf35e7fec0f5c6d201c5,2021-07-15_06h15.12.021,Agingstudy_sl,2020.2.10,Win32,60,60e99d3dbd08ab8815ee63dc,60efc36f4febab2015ba77c2,,,,,,0,68,68,68,1,3,ti,SL_Sounds/ti.wav,,,,,,,
,,,,,,,,,,,,,,,,,,6030cf35e7fec0f5c6d201c5,2021-07-15_06h15.12.021,Agingstudy_sl,2020.2.10,Win32,60,60e99d3dbd08ab8815ee63dc,60efc36f4febab2015ba77c2,,,,,,0,69,69,69,1,1,me,SL_Sounds/me.wav,,,,,,,
,,,,,,,,,,,,,,,,,,6030cf35e7fec0f5c6d201c5,2021-07-15_06h15.12.021,Agingstudy_sl,2020.2.10,Win32,60,60e99d3dbd08ab8815ee63dc,60efc36f4febab2015ba77c2,,,,,,0,70,70,70,1,2,re,SL_Sounds/re.wav,,,,,,,
,,,,,,,,,,,,,,,,,,6030cf35e7fec0f5c6d201c5,2021-07-15_06h15.12.021,Agingstudy_sl,2020.2.10,Win32,60,60e99d3dbd08ab8815ee63dc,60efc36f4febab2015ba77c2,,,,,,0,71,71,71,1,3,ge,SL_Sounds/ge.wav,,,,,,,
,,,,,,,,,,,,,,,,,,6030cf35e7fec0f5c6d201c5,2021-07-15_06h15.12.021,Agingstudy_sl,2020.2.10,Win32,60,60e99d3dbd08ab8815ee63dc,60efc36f4febab2015ba77c2,,,,,,0,72,72,72,1,1,ni,SL_Sounds/ni.wav,,,,,,,
,,,,,,,,,,,,,,,,,,6030cf35e7fec0f5c6d201c5,2021-07-15_06h15.12.021,Agingstudy_sl,2020.2.10,Win32,60,60e99d3dbd08ab8815ee63dc,60efc36f4febab2015ba77c2,,,,,,0,73,73,73,1,2,ru,SL_Sounds/ru.wav,,,,,,,
,,,,,,,,,,,,,,,,,,6030cf35e7fec0f5c6d201c5,2021-07-15_06h15.12.021,Agingstudy_sl,2020.2.10,Win32,60,60e99d3dbd08ab8815ee63dc,60efc36f4febab2015ba77c2,,,,,,0,74,74,74,1,3,pu,SL_Sounds/pu.wav,,,,,,,
,,,,,,,,,,,,,,,,,,6030cf35e7fec0f5c6d201c5,2021-07-15_06h15.12.021,Agingstudy_sl,2020.2.10,Win32,60,60e99d3dbd08ab8815ee63dc,60efc36f4febab2015ba77c2,,,,,,0,75,75,75,1,1,ko,SL_Sounds/ko.wav,,,,,,,
,,,,,,,,,,,,,,,,,,6030cf35e7fec0f5c6d201c5,2021-07-15_06h15.12.021,Agingstudy_sl,2020.2.10,Win32,60,60e99d3dbd08ab8815ee63dc,60efc36f4febab2015ba77c2,,,,,,0,76,76,76,1,2,ta,SL_Sounds/ta.wav,,,,,,,
,,,,,,,,,,,,,,,,,,6030cf35e7fec0f5c6d201c5,2021-07-15_06h15.12.021,Agingstudy_sl,2020.2.10,Win32,60,60e99d3dbd08ab8815ee63dc,60efc36f4febab2015ba77c2,,,,,,0,77,77,77,1,3,fu,SL_Sounds/fu.wav,,,,,,,
,,,,,,,,,,,,,,,,,,6030cf35e7fec0f5c6d201c5,2021-07-15_06h15.12.021,Agingstudy_sl,2020.2.10,Win32,60,60e99d3dbd08ab8815ee63dc,60efc36f4febab2015ba77c2,,,,,,0,78,78,78,1,1,me,SL_Sounds/me.wav,,,,,,,
,,,,,,,,,,,,,,,,,,6030cf35e7fec0f5c6d201c5,2021-07-15_06h15.12.021,Agingstudy_sl,2020.2.10,Win32,60,60e99d3dbd08ab8815ee63dc,60efc36f4febab2015ba77c2,,,,,,0,79,79,79,1,2,re,SL_Sounds/re.wav,,,,,,,
,,,,,,,,,,,,,,,,,,6030cf35e7fec0f5c6d201c5,2021-07-15_06h15.12.021,Agingstudy_sl,2020.2.10,Win32,60,60e99d3dbd08ab8815ee63dc,60efc36f4febab2015ba77c2,,,,,,0,80,80,80,1,3,ge,SL_Sounds/ge.wav,,,,,,,
,,,,,,,,,,,,,,,,,,6030cf35e7fec0f5c6d201c5,2021-07-15_06h15.12.021,Agingstudy_sl,2020.2.10,Win32,60,60e99d3dbd08ab8815ee63dc,60efc36f4febab2015ba77c2,,,,,,0,81,81,81,1,1,su,SL_Sounds/su.wav,,,,,,,
,,,,,,,,,,,,,,,,,,6030cf35e7fec0f5c6d201c5,2021-07-15_06h15.12.021,Agingstudy_sl,2020.2.10,Win32,60,60e99d3dbd08ab8815ee63dc,60efc36f4febab2015ba77c2,,,,,,0,82,82,82,1,2,fe,SL_Sounds/fe.wav,,,,,,,
,,,,,,,,,,,,,,,,,,6030cf35e7fec0f5c6d201c5,2021-07-15_06h15.12.021,Agingstudy_sl,2020.2.10,Win32,60,60e99d3dbd08ab8815ee63dc,60efc36f4febab2015ba77c2,,,,,,0,83,83,83,1,3,ti,SL_Sounds/ti.wav,,,,,,,
,,,,,,,,,,,,,,,,,,6030cf35e7fec0f5c6d201c5,2021-07-15_06h15.12.021,Agingstudy_sl,2020.2.10,Win32,60,60e99d3dbd08ab8815ee63dc,60efc36f4febab2015ba77c2,,,,,,0,84,84,84,1,1,ni,SL_Sounds/ni.wav,,,,,,,
,,,,,,,,,,,,,,,,,,6030cf35e7fec0f5c6d201c5,2021-07-15_06h15.12.021,Agingstudy_sl,2020.2.10,Win32,60,60e99d3dbd08ab8815ee63dc,60efc36f4febab2015ba77c2,,,,,,0,85,85,85,1,2,ru,SL_Sounds/ru.wav,,,,,,,
,,,,,,,,,,,,,,,,,,6030cf35e7fec0f5c6d201c5,2021-07-15_06h15.12.021,Agingstudy_sl,2020.2.10,Win32,60,60e99d3dbd08ab8815ee63dc,60efc36f4febab2015ba77c2,,,,,,0,86,86,86,1,3,pu,SL_Sounds/pu.wav,,,,,,,
,,,,,,,,,,,,,,,,,,6030cf35e7fec0f5c6d201c5,2021-07-15_06h15.12.021,Agingstudy_sl,2020.2.10,Win32,60,60e99d3dbd08ab8815ee63dc,60efc36f4febab2015ba77c2,,,,,,0,87,87,87,1,1,me,SL_Sounds/me.wav,,,,,,,
,,,,,,,,,,,,,,,,,,6030cf35e7fec0f5c6d201c5,2021-07-15_06h15.12.021,Agingstudy_sl,2020.2.10,Win32,60,60e99d3dbd08ab8815ee63dc,60efc36f4febab2015ba77c2,,,,,,0,88,88,88,1,2,re,SL_Sounds/re.wav,,,,,,,
,,,,,,,,,,,,,,,,,,6030cf35e7fec0f5c6d201c5,2021-07-15_06h15.12.021,Agingstudy_sl,2020.2.10,Win32,60,60e99d3dbd08ab8815ee63dc,60efc36f4febab2015ba77c2,,,,,,0,89,89,89,1,3,ge,SL_Sounds/ge.wav,,,,,,,
,,,,,,,,,,,,,,,,,,6030cf35e7fec0f5c6d201c5,2021-07-15_06h15.12.021,Agingstudy_sl,2020.2.10,Win32,60,60e99d3dbd08ab8815ee63dc,60efc36f4febab2015ba77c2,,,,,,0,90,90,90,1,1,ni,SL_Sounds/ni.wav,,,,,,,
,,,,,,,,,,,,,,,,,,6030cf35e7fec0f5c6d201c5,2021-07-15_06h15.12.021,Agingstudy_sl,2020.2.10,Win32,60,60e99d3dbd08ab8815ee63dc,60efc36f4febab2015ba77c2,,,,,,0,91,91,91,1,2,ru,SL_Sounds/ru.wav,,,,,,,
,,,,,,,,,,,,,,,,,,6030cf35e7fec0f5c6d201c5,2021-07-15_06h15.12.021,Agingstudy_sl,2020.2.10,Win32,60,60e99d3dbd08ab8815ee63dc,60efc36f4febab2015ba77c2,,,,,,0,92,92,92,1,3,pu,SL_Sounds/pu.wav,,,,,,,
,,,,,,,,,,,,,,,,,,6030cf35e7fec0f5c6d201c5,2021-07-15_06h15.12.021,Agingstudy_sl,2020.2.10,Win32,60,60e99d3dbd08ab8815ee63dc,60efc36f4febab2015ba77c2,,,,,,0,93,93,93,1,1,ko,SL_Sounds/ko.wav,,,,,,,
,,,,,,,,,,,,,,,,,,6030cf35e7fec0f5c6d201c5,2021-07-15_06h15.12.021,Agingstudy_sl,2020.2.10,Win32,60,60e99d3dbd08ab8815ee63dc,60efc36f4febab2015ba77c2,,,,,,0,94,94,94,1,2,ta,SL_Sounds/ta.wav,,,,,,,
,,,,,,,,,,,,,,,,,,6030cf35e7fec0f5c6d201c5,2021-07-15_06h15.12.021,Agingstudy_sl,2020.2.10,Win32,60,60e99d3dbd08ab8815ee63dc,60efc36f4febab2015ba77c2,,,,,,0,95,95,95,1,3,fu,SL_Sounds/fu.wav,,,,,,,
,,,,,,,,,,,,,,,,,,6030cf35e7fec0f5c6d201c5,2021-07-15_06h15.12.021,Agingstudy_sl,2020.2.10,Win32,60,60e99d3dbd08ab8815ee63dc,60efc36f4febab2015ba77c2,,,,,,0,96,96,96,1,1,ni,SL_Sounds/ni.wav,,,,,,,
,,,,,,,,,,,,,,,,,,6030cf35e7fec0f5c6d201c5,2021-07-15_06h15.12.021,Agingstudy_sl,2020.2.10,Win32,60,60e99d3dbd08ab8815ee63dc,60efc36f4febab2015ba77c2,,,,,,0,97,97,97,1,2,ru,SL_Sounds/ru.wav,,,,,,,
,,,,,,,,,,,,,,,,,,6030cf35e7fec0f5c6d201c5,2021-07-15_06h15.12.021,Agingstudy_sl,2020.2.10,Win32,60,60e99d3dbd08ab8815ee63dc,60efc36f4febab2015ba77c2,,,,,,0,98,98,98,1,3,pu,SL_Sounds/pu.wav,,,,,,,
,,,,,,,,,,,,,,,,,,6030cf35e7fec0f5c6d201c5,2021-07-15_06h15.12.021,Agingstudy_sl,2020.2.10,Win32,60,60e99d3dbd08ab8815ee63dc,60efc36f4febab2015ba77c2,,,,,,0,99,99,99,1,1,su,SL_Sounds/su.wav,,,,,,,
,,,,,,,,,,,,,,,,,,6030cf35e7fec0f5c6d201c5,2021-07-15_06h15.12.021,Agingstudy_sl,2020.2.10,Win32,60,60e99d3dbd08ab8815ee63dc,60efc36f4febab2015ba77c2,,,,,,0,100,100,100,1,2,fe,SL_Sounds/fe.wav,,,,,,,
,,,,,,,,,,,,,,,,,,6030cf35e7fec0f5c6d201c5,2021-07-15_06h15.12.021,Agingstudy_sl,2020.2.10,Win32,60,60e99d3dbd08ab8815ee63dc,60efc36f4febab2015ba77c2,,,,,,0,101,101,101,1,3,ti,SL_Sounds/ti.wav,,,,,,,
,,,,,,,,,,,,,,,,,,6030cf35e7fec0f5c6d201c5,2021-07-15_06h15.12.021,Agingstudy_sl,2020.2.10,Win32,60,60e99d3dbd08ab8815ee63dc,60efc36f4febab2015ba77c2,,,,,,0,102,102,102,1,1,me,SL_Sounds/me.wav,,,,,,,
,,,,,,,,,,,,,,,,,,6030cf35e7fec0f5c6d201c5,2021-07-15_06h15.12.021,Agingstudy_sl,2020.2.10,Win32,60,60e99d3dbd08ab8815ee63dc,60efc36f4febab2015ba77c2,,,,,,0,103,103,103,1,2,re,SL_Sounds/re.wav,,,,,,,
,,,,,,,,,,,,,,,,,,6030cf35e7fec0f5c6d201c5,2021-07-15_06h15.12.021,Agingstudy_sl,2020.2.10,Win32,60,60e99d3dbd08ab8815ee63dc,60efc36f4febab2015ba77c2,,,,,,0,104,104,104,1,3,ge,SL_Sounds/ge.wav,,,,,,,
,,,,,,,,,,,,,,,,,,6030cf35e7fec0f5c6d201c5,2021-07-15_06h15.12.021,Agingstudy_sl,2020.2.10,Win32,60,60e99d3dbd08ab8815ee63dc,60efc36f4febab2015ba77c2,,,,,,0,105,105,105,1,1,su,SL_Sounds/su.wav,,,,,,,
,,,,,,,,,,,,,,,,,,6030cf35e7fec0f5c6d201c5,2021-07-15_06h15.12.021,Agingstudy_sl,2020.2.10,Win32,60,60e99d3dbd08ab8815ee63dc,60efc36f4febab2015ba77c2,,,,,,0,106,106,106,1,2,fe,SL_Sounds/fe.wav,,,,,,,
,,,,,,,,,,,,,,,,,,6030cf35e7fec0f5c6d201c5,2021-07-15_06h15.12.021,Agingstudy_sl,2020.2.10,Win32,60,60e99d3dbd08ab8815ee63dc,60efc36f4febab2015ba77c2,,,,,,0,107,107,107,1,3,ti,SL_Sounds/ti.wav,,,,,,,
,,,,,,,,,,,,,,,,,,6030cf35e7fec0f5c6d201c5,2021-07-15_06h15.12.021,Agingstudy_sl,2020.2.10,Win32,60,60e99d3dbd08ab8815ee63dc,60efc36f4febab2015ba77c2,,,,,,0,108,108,108,1,1,ko,SL_Sounds/ko.wav,,,,,,,
,,,,,,,,,,,,,,,,,,6030cf35e7fec0f5c6d201c5,2021-07-15_06h15.12.021,Agingstudy_sl,2020.2.10,Win32,60,60e99d3dbd08ab8815ee63dc,60efc36f4febab2015ba77c2,,,,,,0,109,109,109,1,2,ta,SL_Sounds/ta.wav,,,,,,,
,,,,,,,,,,,,,,,,,,6030cf35e7fec0f5c6d201c5,2021-07-15_06h15.12.021,Agingstudy_sl,2020.2.10,Win32,60,60e99d3dbd08ab8815ee63dc,60efc36f4febab2015ba77c2,,,,,,0,110,110,110,1,3,fu,SL_Sounds/fu.wav,,,,,,,
,,,,,,,,,,,,,,,,,,6030cf35e7fec0f5c6d201c5,2021-07-15_06h15.12.021,Agingstudy_sl,2020.2.10,Win32,60,60e99d3dbd08ab8815ee63dc,60efc36f4febab2015ba77c2,,,,,,0,111,111,111,1,1,su,SL_Sounds/su.wav,,,,,,,
,,,,,,,,,,,,,,,,,,6030cf35e7fec0f5c6d201c5,2021-07-15_06h15.12.021,Agingstudy_sl,2020.2.10,Win32,60,60e99d3dbd08ab8815ee63dc,60efc36f4febab2015ba77c2,,,,,,0,112,112,112,1,2,fe,SL_Sounds/fe.wav,,,,,,,
,,,,,,,,,,,,,,,,,,6030cf35e7fec0f5c6d201c5,2021-07-15_06h15.12.021,Agingstudy_sl,2020.2.10,Win32,60,60e99d3dbd08ab8815ee63dc,60efc36f4febab2015ba77c2,,,,,,0,113,113,113,1,3,ti,SL_Sounds/ti.wav,,,,,,,
,,,,,,,,,,,,,,,,,,6030cf35e7fec0f5c6d201c5,2021-07-15_06h15.12.021,Agingstudy_sl,2020.2.10,Win32,60,60e99d3dbd08ab8815ee63dc,60efc36f4febab2015ba77c2,,,,,,0,114,114,114,1,1,ko,SL_Sounds/ko.wav,,,,,,,
,,,,,,,,,,,,,,,,,,6030cf35e7fec0f5c6d201c5,2021-07-15_06h15.12.021,Agingstudy_sl,2020.2.10,Win32,60,60e99d3dbd08ab8815ee63dc,60efc36f4febab2015ba77c2,,,,,,0,115,115,115,1,2,ta,SL_Sounds/ta.wav,,,,,,,
,,,,,,,,,,,,,,,,,,6030cf35e7fec0f5c6d201c5,2021-07-15_06h15.12.021,Agingstudy_sl,2020.2.10,Win32,60,60e99d3dbd08ab8815ee63dc,60efc36f4febab2015ba77c2,,,,,,0,116,116,116,1,3,fu,SL_Sounds/fu.wav,,,,,,,
,,,,,,,,,,,,,,,,,,6030cf35e7fec0f5c6d201c5,2021-07-15_06h15.12.021,Agingstudy_sl,2020.2.10,Win32,60,60e99d3dbd08ab8815ee63dc,60efc36f4febab2015ba77c2,,,,,,0,117,117,117,1,1,ni,SL_Sounds/ni.wav,,,,,,,
,,,,,,,,,,,,,,,,,,6030cf35e7fec0f5c6d201c5,2021-07-15_06h15.12.021,Agingstudy_sl,2020.2.10,Win32,60,60e99d3dbd08ab8815ee63dc,60efc36f4febab2015ba77c2,,,,,,0,118,118,118,1,2,ru,SL_Sounds/ru.wav,,,,,,,
,,,,,,,,,,,,,,,,,,6030cf35e7fec0f5c6d201c5,2021-07-15_06h15.12.021,Agingstudy_sl,2020.2.10,Win32,60,60e99d3dbd08ab8815ee63dc,60efc36f4febab2015ba77c2,,,,,,0,119,119,119,1,3,pu,SL_Sounds/pu.wav,,,,,,,
,,,,,,,,,,,,,,,,,,6030cf35e7fec0f5c6d201c5,2021-07-15_06h15.12.021,Agingstudy_sl,2020.2.10,Win32,60,60e99d3dbd08ab8815ee63dc,60efc36f4febab2015ba77c2,,,,,,0,120,120,120,1,1,me,SL_Sounds/me.wav,,,,,,,
,,,,,,,,,,,,,,,,,,6030cf35e7fec0f5c6d201c5,2021-07-15_06h15.12.021,Agingstudy_sl,2020.2.10,Win32,60,60e99d3dbd08ab8815ee63dc,60efc36f4febab2015ba77c2,,,,,,0,121,121,121,1,2,re,SL_Sounds/re.wav,,,,,,,
,,,,,,,,,,,,,,,,,,6030cf35e7fec0f5c6d201c5,2021-07-15_06h15.12.021,Agingstudy_sl,2020.2.10,Win32,60,60e99d3dbd08ab8815ee63dc,60efc36f4febab2015ba77c2,,,,,,,,,,,,,,space,0.4534,0,0,0,0,1
,,,,,,,,,,,,,,,,,,6030cf35e7fec0f5c6d201c5,2021-07-15_06h15.12.021,Agingstudy_sl,2020.2.10,Win32,60,60e99d3dbd08ab8815ee63dc,60efc36f4febab2015ba77c2,,,,,,0,122,122,122,1,3,ge,SL_Sounds/ge.wav,,,,,,,
,,,,,,,,,,,,,,,,,,6030cf35e7fec0f5c6d201c5,2021-07-15_06h15.12.021,Agingstudy_sl,2020.2.10,Win32,60,60e99d3dbd08ab8815ee63dc,60efc36f4febab2015ba77c2,,,,,,0,123,123,123,1,1,su,SL_Sounds/su.wav,,,,,,,
,,,,,,,,,,,,,,,,,,6030cf35e7fec0f5c6d201c5,2021-07-15_06h15.12.021,Agingstudy_sl,2020.2.10,Win32,60,60e99d3dbd08ab8815ee63dc,60efc36f4febab2015ba77c2,,,,,,0,124,124,124,1,2,fe,SL_Sounds/fe.wav,,,,,,,
,,,,,,,,,,,,,,,,,,6030cf35e7fec0f5c6d201c5,2021-07-15_06h15.12.021,Agingstudy_sl,2020.2.10,Win32,60,60e99d3dbd08ab8815ee63dc,60efc36f4febab2015ba77c2,,,,,,0,125,125,125,1,3,ti,SL_Sounds/ti.wav,,,,,,,
,,,,,,,,,,,,,,,,,,6030cf35e7fec0f5c6d201c5,2021-07-15_06h15.12.021,Agingstudy_sl,2020.2.10,Win32,60,60e99d3dbd08ab8815ee63dc,60efc36f4febab2015ba77c2,,,,,,0,126,126,126,1,1,ko,SL_Sounds/ko.wav,,,,,,,
,,,,,,,,,,,,,,,,,,6030cf35e7fec0f5c6d201c5,2021-07-15_06h15.12.021,Agingstudy_sl,2020.2.10,Win32,60,60e99d3dbd08ab8815ee63dc,60efc36f4febab2015ba77c2,,,,,,0,127,127,127,1,2,ta,SL_Sounds/ta.wav,,,,,,,
,,,,,,,,,,,,,,,,,,6030cf35e7fec0f5c6d201c5,2021-07-15_06h15.12.021,Agingstudy_sl,2020.2.10,Win32,60,60e99d3dbd08ab8815ee63dc,60efc36f4febab2015ba77c2,,,,,,0,128,128,128,1,3,fu,SL_Sounds/fu.wav,,,,,,,
,,,,,,,,,,,,,,,,,,6030cf35e7fec0f5c6d201c5,2021-07-15_06h15.12.021,Agingstudy_sl,2020.2.10,Win32,60,60e99d3dbd08ab8815ee63dc,60efc36f4febab2015ba77c2,,,,,,0,129,129,129,1,1,me,SL_Sounds/me.wav,,,,,,,
,,,,,,,,,,,,,,,,,,6030cf35e7fec0f5c6d201c5,2021-07-15_06h15.12.021,Agingstudy_sl,2020.2.10,Win32,60,60e99d3dbd08ab8815ee63dc,60efc36f4febab2015ba77c2,,,,,,0,130,130,130,1,2,re,SL_Sounds/re.wav,,,,,,,
,,,,,,,,,,,,,,,,,,6030cf35e7fec0f5c6d201c5,2021-07-15_06h15.12.021,Agingstudy_sl,2020.2.10,Win32,60,60e99d3dbd08ab8815ee63dc,60efc36f4febab2015ba77c2,,,,,,0,131,131,131,1,3,ge,SL_Sounds/ge.wav,,,,,,,
,,,,,,,,,,,,,,,,,,6030cf35e7fec0f5c6d201c5,2021-07-15_06h15.12.021,Agingstudy_sl,2020.2.10,Win32,60,60e99d3dbd08ab8815ee63dc,60efc36f4febab2015ba77c2,,,,,,0,132,132,132,1,1,ko,SL_Sounds/ko.wav,,,,,,,
,,,,,,,,,,,,,,,,,,6030cf35e7fec0f5c6d201c5,2021-07-15_06h15.12.021,Agingstudy_sl,2020.2.10,Win32,60,60e99d3dbd08ab8815ee63dc,60efc36f4febab2015ba77c2,,,,,,0,133,133,133,1,2,ta,SL_Sounds/ta.wav,,,,,,,
,,,,,,,,,,,,,,,,,,6030cf35e7fec0f5c6d201c5,2021-07-15_06h15.12.021,Agingstudy_sl,2020.2.10,Win32,60,60e99d3dbd08ab8815ee63dc,60efc36f4febab2015ba77c2,,,,,,0,134,134,134,1,3,fu,SL_Sounds/fu.wav,,,,,,,
,,,,,,,,,,,,,,,,,,6030cf35e7fec0f5c6d201c5,2021-07-15_06h15.12.021,Agingstudy_sl,2020.2.10,Win32,60,60e99d3dbd08ab8815ee63dc,60efc36f4febab2015ba77c2,,,,,,0,135,135,135,1,1,me,SL_Sounds/me.wav,,,,,,,
,,,,,,,,,,,,,,,,,,6030cf35e7fec0f5c6d201c5,2021-07-15_06h15.12.021,Agingstudy_sl,2020.2.10,Win32,60,60e99d3dbd08ab8815ee63dc,60efc36f4febab2015ba77c2,,,,,,0,136,136,136,1,2,re,SL_Sounds/re.wav,,,,,,,
,,,,,,,,,,,,,,,,,,6030cf35e7fec0f5c6d201c5,2021-07-15_06h15.12.021,Agingstudy_sl,2020.2.10,Win32,60,60e99d3dbd08ab8815ee63dc,60efc36f4febab2015ba77c2,,,,,,0,137,137,137,1,3,ge,SL_Sounds/ge.wav,,,,,,,
,,,,,,,,,,,,,,,,,,6030cf35e7fec0f5c6d201c5,2021-07-15_06h15.12.021,Agingstudy_sl,2020.2.10,Win32,60,60e99d3dbd08ab8815ee63dc,60efc36f4febab2015ba77c2,,,,,,0,138,138,138,1,1,su,SL_Sounds/su.wav,,,,,,,
,,,,,,,,,,,,,,,,,,6030cf35e7fec0f5c6d201c5,2021-07-15_06h15.12.021,Agingstudy_sl,2020.2.10,Win32,60,60e99d3dbd08ab8815ee63dc,60efc36f4febab2015ba77c2,,,,,,0,139,139,139,1,2,fe,SL_Sounds/fe.wav,,,,,,,
,,,,,,,,,,,,,,,,,,6030cf35e7fec0f5c6d201c5,2021-07-15_06h15.12.021,Agingstudy_sl,2020.2.10,Win32,60,60e99d3dbd08ab8815ee63dc,60efc36f4febab2015ba77c2,,,,,,0,140,140,140,1,3,ti,SL_Sounds/ti.wav,,,,,,,
,,,,,,,,,,,,,,,,,,6030cf35e7fec0f5c6d201c5,2021-07-15_06h15.12.021,Agingstudy_sl,2020.2.10,Win32,60,60e99d3dbd08ab8815ee63dc,60efc36f4febab2015ba77c2,,,,,,0,141,141,141,1,1,ko,SL_Sounds/ko.wav,,,,,,,
,,,,,,,,,,,,,,,,,,6030cf35e7fec0f5c6d201c5,2021-07-15_06h15.12.021,Agingstudy_sl,2020.2.10,Win32,60,60e99d3dbd08ab8815ee63dc,60efc36f4febab2015ba77c2,,,,,,0,142,142,142,1,2,ta,SL_Sounds/ta.wav,,,,,,,
,,,,,,,,,,,,,,,,,,6030cf35e7fec0f5c6d201c5,2021-07-15_06h15.12.021,Agingstudy_sl,2020.2.10,Win32,60,60e99d3dbd08ab8815ee63dc,60efc36f4febab2015ba77c2,,,,,,0,143,143,143,1,3,fu,SL_Sounds/fu.wav,,,,,,,
,,,,,,,,,,,,,,,,,,6030cf35e7fec0f5c6d201c5,2021-07-15_06h15.12.021,Agingstudy_sl,2020.2.10,Win32,60,60e99d3dbd08ab8815ee63dc,60efc36f4febab2015ba77c2,,,,,,0,144,144,144,1,1,me,SL_Sounds/me.wav,,,,,,,
,,,,,,,,,,,,,,,,,,6030cf35e7fec0f5c6d201c5,2021-07-15_06h15.12.021,Agingstudy_sl,2020.2.10,Win32,60,60e99d3dbd08ab8815ee63dc,60efc36f4febab2015ba77c2,,,,,,0,145,145,145,1,2,re,SL_Sounds/re.wav,,,,,,,
,,,,,,,,,,,,,,,,,,6030cf35e7fec0f5c6d201c5,2021-07-15_06h15.12.021,Agingstudy_sl,2020.2.10,Win32,60,60e99d3dbd08ab8815ee63dc,60efc36f4febab2015ba77c2,,,,,,,,,,,,,,space,0.4669,0,0,0,0,1
,,,,,,,,,,,,,,,,,,6030cf35e7fec0f5c6d201c5,2021-07-15_06h15.12.021,Agingstudy_sl,2020.2.10,Win32,60,60e99d3dbd08ab8815ee63dc,60efc36f4febab2015ba77c2,,,,,,0,146,146,146,1,3,ge,SL_Sounds/ge.wav,,,,,,,
,,,,,,,,,,,,,,,,,,6030cf35e7fec0f5c6d201c5,2021-07-15_06h15.12.021,Agingstudy_sl,2020.2.10,Win32,60,60e99d3dbd08ab8815ee63dc,60efc36f4febab2015ba77c2,,,,,,0,147,147,147,1,1,su,SL_Sounds/su.wav,,,,,,,
,,,,,,,,,,,,,,,,,,6030cf35e7fec0f5c6d201c5,2021-07-15_06h15.12.021,Agingstudy_sl,2020.2.10,Win32,60,60e99d3dbd08ab8815ee63dc,60efc36f4febab2015ba77c2,,,,,,0,148,148,148,1,2,fe,SL_Sounds/fe.wav,,,,,,,
,,,,,,,,,,,,,,,,,,6030cf35e7fec0f5c6d201c5,2021-07-15_06h15.12.021,Agingstudy_sl,2020.2.10,Win32,60,60e99d3dbd08ab8815ee63dc,60efc36f4febab2015ba77c2,,,,,,0,149,149,149,1,3,ti,SL_Sounds/ti.wav,,,,,,,
,,,,,,,,,,,,,,,,,,6030cf35e7fec0f5c6d201c5,2021-07-15_06h15.12.021,Agingstudy_sl,2020.2.10,Win32,60,60e99d3dbd08ab8815ee63dc,60efc36f4febab2015ba77c2,,,,,,0,150,150,150,1,1,me,SL_Sounds/me.wav,,,,,,,
,,,,,,,,,,,,,,,,,,6030cf35e7fec0f5c6d201c5,2021-07-15_06h15.12.021,Agingstudy_sl,2020.2.10,Win32,60,60e99d3dbd08ab8815ee63dc,60efc36f4febab2015ba77c2,,,,,,0,151,151,151,1,2,re,SL_Sounds/re.wav,,,,,,,
,,,,,,,,,,,,,,,,,,6030cf35e7fec0f5c6d201c5,2021-07-15_06h15.12.021,Agingstudy_sl,2020.2.10,Win32,60,60e99d3dbd08ab8815ee63dc,60efc36f4febab2015ba77c2,,,,,,0,152,152,152,1,3,ge,SL_Sounds/ge.wav,,,,,,,
,,,,,,,,,,,,,,,,,,6030cf35e7fec0f5c6d201c5,2021-07-15_06h15.12.021,Agingstudy_sl,2020.2.10,Win32,60,60e99d3dbd08ab8815ee63dc,60efc36f4febab2015ba77c2,,,,,,0,153,153,153,1,1,ko,SL_Sounds/ko.wav,,,,,,,
,,,,,,,,,,,,,,,,,,6030cf35e7fec0f5c6d201c5,2021-07-15_06h15.12.021,Agingstudy_sl,2020.2.10,Win32,60,60e99d3dbd08ab8815ee63dc,60efc36f4febab2015ba77c2,,,,,,0,154,154,154,1,2,ta,SL_Sounds/ta.wav,,,,,,,
,,,,,,,,,,,,,,,,,,6030cf35e7fec0f5c6d201c5,2021-07-15_06h15.12.021,Agingstudy_sl,2020.2.10,Win32,60,60e99d3dbd08ab8815ee63dc,60efc36f4febab2015ba77c2,,,,,,0,155,155,155,1,3,fu,SL_Sounds/fu.wav,,,,,,,
,,,,,,,,,,,,,,,,,,6030cf35e7fec0f5c6d201c5,2021-07-15_06h15.12.021,Agingstudy_sl,2020.2.10,Win32,60,60e99d3dbd08ab8815ee63dc,60efc36f4febab2015ba77c2,,,,,,0,156,156,156,1,1,ni,SL_Sounds/ni.wav,,,,,,,
,,,,,,,,,,,,,,,,,,6030cf35e7fec0f5c6d201c5,2021-07-15_06h15.12.021,Agingstudy_sl,2020.2.10,Win32,60,60e99d3dbd08ab8815ee63dc,60efc36f4febab2015ba77c2,,,,,,0,157,157,157,1,2,ru,SL_Sounds/ru.wav,,,,,,,
,,,,,,,,,,,,,,,,,,6030cf35e7fec0f5c6d201c5,2021-07-15_06h15.12.021,Agingstudy_sl,2020.2.10,Win32,60,60e99d3dbd08ab8815ee63dc,60efc36f4febab2015ba77c2,,,,,,0,158,158,158,1,3,pu,SL_Sounds/pu.wav,,,,,,,
,,,,,,,,,,,,,,,,,,6030cf35e7fec0f5c6d201c5,2021-07-15_06h15.12.021,Agingstudy_sl,2020.2.10,Win32,60,60e99d3dbd08ab8815ee63dc,60efc36f4febab2015ba77c2,,,,,,0,159,159,159,1,1,ko,SL_Sounds/ko.wav,,,,,,,
,,,,,,,,,,,,,,,,,,6030cf35e7fec0f5c6d201c5,2021-07-15_06h15.12.021,Agingstudy_sl,2020.2.10,Win32,60,60e99d3dbd08ab8815ee63dc,60efc36f4febab2015ba77c2,,,,,,0,160,160,160,1,2,ta,SL_Sounds/ta.wav,,,,,,,
,,,,,,,,,,,,,,,,,,6030cf35e7fec0f5c6d201c5,2021-07-15_06h15.12.021,Agingstudy_sl,2020.2.10,Win32,60,60e99d3dbd08ab8815ee63dc,60efc36f4febab2015ba77c2,,,,,,0,161,161,161,1,3,fu,SL_Sounds/fu.wav,,,,,,,
,,,,,,,,,,,,,,,,,,6030cf35e7fec0f5c6d201c5,2021-07-15_06h15.12.021,Agingstudy_sl,2020.2.10,Win32,60,60e99d3dbd08ab8815ee63dc,60efc36f4febab2015ba77c2,,,,,,0,162,162,162,1,1,su,SL_Sounds/su.wav,,,,,,,
,,,,,,,,,,,,,,,,,,6030cf35e7fec0f5c6d201c5,2021-07-15_06h15.12.021,Agingstudy_sl,2020.2.10,Win32,60,60e99d3dbd08ab8815ee63dc,60efc36f4febab2015ba77c2,,,,,,0,163,163,163,1,2,fe,SL_Sounds/fe.wav,,,,,,,
,,,,,,,,,,,,,,,,,,6030cf35e7fec0f5c6d201c5,2021-07-15_06h15.12.021,Agingstudy_sl,2020.2.10,Win32,60,60e99d3dbd08ab8815ee63dc,60efc36f4febab2015ba77c2,,,,,,0,164,164,164,1,3,ti,SL_Sounds/ti.wav,,,,,,,
,,,,,,,,,,,,,,,,,,6030cf35e7fec0f5c6d201c5,2021-07-15_06h15.12.021,Agingstudy_sl,2020.2.10,Win32,60,60e99d3dbd08ab8815ee63dc,60efc36f4febab2015ba77c2,,,,,,0,165,165,165,1,1,ko,SL_Sounds/ko.wav,,,,,,,
,,,,,,,,,,,,,,,,,,6030cf35e7fec0f5c6d201c5,2021-07-15_06h15.12.021,Agingstudy_sl,2020.2.10,Win32,60,60e99d3dbd08ab8815ee63dc,60efc36f4febab2015ba77c2,,,,,,0,166,166,166,1,2,ta,SL_Sounds/ta.wav,,,,,,,
,,,,,,,,,,,,,,,,,,6030cf35e7fec0f5c6d201c5,2021-07-15_06h15.12.021,Agingstudy_sl,2020.2.10,Win32,60,60e99d3dbd08ab8815ee63dc,60efc36f4febab2015ba77c2,,,,,,0,167,167,167,1,3,fu,SL_Sounds/fu.wav,,,,,,,
,,,,,,,,,,,,,,,,,,6030cf35e7fec0f5c6d201c5,2021-07-15_06h15.12.021,Agingstudy_sl,2020.2.10,Win32,60,60e99d3dbd08ab8815ee63dc,60efc36f4febab2015ba77c2,,,,,,0,168,168,168,1,1,me,SL_Sounds/me.wav,,,,,,,
,,,,,,,,,,,,,,,,,,6030cf35e7fec0f5c6d201c5,2021-07-15_06h15.12.021,Agingstudy_sl,2020.2.10,Win32,60,60e99d3dbd08ab8815ee63dc,60efc36f4febab2015ba77c2,,,,,,0,169,169,169,1,2,re,SL_Sounds/re.wav,,,,,,,
,,,,,,,,,,,,,,,,,,6030cf35e7fec0f5c6d201c5,2021-07-15_06h15.12.021,Agingstudy_sl,2020.2.10,Win32,60,60e99d3dbd08ab8815ee63dc,60efc36f4febab2015ba77c2,,,,,,0,170,170,170,1,3,ge,SL_Sounds/ge.wav,,,,,,,
,,,,,,,,,,,,,,,,,,6030cf35e7fec0f5c6d201c5,2021-07-15_06h15.12.021,Agingstudy_sl,2020.2.10,Win32,60,60e99d3dbd08ab8815ee63dc,60efc36f4febab2015ba77c2,,,,,,0,171,171,171,1,1,su,SL_Sounds/su.wav,,,,,,,
,,,,,,,,,,,,,,,,,,6030cf35e7fec0f5c6d201c5,2021-07-15_06h15.12.021,Agingstudy_sl,2020.2.10,Win32,60,60e99d3dbd08ab8815ee63dc,60efc36f4febab2015ba77c2,,,,,,0,172,172,172,1,2,fe,SL_Sounds/fe.wav,,,,,,,
,,,,,,,,,,,,,,,,,,6030cf35e7fec0f5c6d201c5,2021-07-15_06h15.12.021,Agingstudy_sl,2020.2.10,Win32,60,60e99d3dbd08ab8815ee63dc,60efc36f4febab2015ba77c2,,,,,,0,173,173,173,1,3,ti,SL_Sounds/ti.wav,,,,,,,
,,,,,,,,,,,,,,,,,,6030cf35e7fec0f5c6d201c5,2021-07-15_06h15.12.021,Agingstudy_sl,2020.2.10,Win32,60,60e99d3dbd08ab8815ee63dc,60efc36f4febab2015ba77c2,,,,,,0,174,174,174,1,1,ko,SL_Sounds/ko.wav,,,,,,,
,,,,,,,,,,,,,,,,,,6030cf35e7fec0f5c6d201c5,2021-07-15_06h15.12.021,Agingstudy_sl,2020.2.10,Win32,60,60e99d3dbd08ab8815ee63dc,60efc36f4febab2015ba77c2,,,,,,0,175,175,175,1,2,ta,SL_Sounds/ta.wav,,,,,,,
,,,,,,,,,,,,,,,,,,6030cf35e7fec0f5c6d201c5,2021-07-15_06h15.12.021,Agingstudy_sl,2020.2.10,Win32,60,60e99d3dbd08ab8815ee63dc,60efc36f4febab2015ba77c2,,,,,,,,,,,,,,space,0.4051,0,0,0,0,1
,,,,,,,,,,,,,,,,,,6030cf35e7fec0f5c6d201c5,2021-07-15_06h15.12.021,Agingstudy_sl,2020.2.10,Win32,60,60e99d3dbd08ab8815ee63dc,60efc36f4febab2015ba77c2,,,,,,0,176,176,176,1,3,fu,SL_Sounds/fu.wav,,,,,,,
,,,,,,,,,,,,,,,,,,6030cf35e7fec0f5c6d201c5,2021-07-15_06h15.12.021,Agingstudy_sl,2020.2.10,Win32,60,60e99d3dbd08ab8815ee63dc,60efc36f4febab2015ba77c2,,,,,,0,177,177,177,1,1,ni,SL_Sounds/ni.wav,,,,,,,
,,,,,,,,,,,,,,,,,,6030cf35e7fec0f5c6d201c5,2021-07-15_06h15.12.021,Agingstudy_sl,2020.2.10,Win32,60,60e99d3dbd08ab8815ee63dc,60efc36f4febab2015ba77c2,,,,,,0,178,178,178,1,2,ru,SL_Sounds/ru.wav,,,,,,,
,,,,,,,,,,,,,,,,,,6030cf35e7fec0f5c6d201c5,2021-07-15_06h15.12.021,Agingstudy_sl,2020.2.10,Win32,60,60e99d3dbd08ab8815ee63dc,60efc36f4febab2015ba77c2,,,,,,0,179,179,179,1,3,pu,SL_Sounds/pu.wav,,,,,,,
,,,,,,,,,,,,,,,,,,6030cf35e7fec0f5c6d201c5,2021-07-15_06h15.12.021,Agingstudy_sl,2020.2.10,Win32,60,60e99d3dbd08ab8815ee63dc,60efc36f4febab2015ba77c2,,,,,,0,180,180,180,1,1,me,SL_Sounds/me.wav,,,,,,,
,,,,,,,,,,,,,,,,,,6030cf35e7fec0f5c6d201c5,2021-07-15_06h15.12.021,Agingstudy_sl,2020.2.10,Win32,60,60e99d3dbd08ab8815ee63dc,60efc36f4febab2015ba77c2,,,,,,0,181,181,181,1,2,re,SL_Sounds/re.wav,,,,,,,
,,,,,,,,,,,,,,,,,,6030cf35e7fec0f5c6d201c5,2021-07-15_06h15.12.021,Agingstudy_sl,2020.2.10,Win32,60,60e99d3dbd08ab8815ee63dc,60efc36f4febab2015ba77c2,,,,,,0,182,182,182,1,3,ge,SL_Sounds/ge.wav,,,,,,,
,,,,,,,,,,,,,,,,,,6030cf35e7fec0f5c6d201c5,2021-07-15_06h15.12.021,Agingstudy_sl,2020.2.10,Win32,60,60e99d3dbd08ab8815ee63dc,60efc36f4febab2015ba77c2,,,,,,0,183,183,183,1,1,su,SL_Sounds/su.wav,,,,,,,
,,,,,,,,,,,,,,,,,,6030cf35e7fec0f5c6d201c5,2021-07-15_06h15.12.021,Agingstudy_sl,2020.2.10,Win32,60,60e99d3dbd08ab8815ee63dc,60efc36f4febab2015ba77c2,,,,,,0,184,184,184,1,2,fe,SL_Sounds/fe.wav,,,,,,,
,,,,,,,,,,,,,,,,,,6030cf35e7fec0f5c6d201c5,2021-07-15_06h15.12.021,Agingstudy_sl,2020.2.10,Win32,60,60e99d3dbd08ab8815ee63dc,60efc36f4febab2015ba77c2,,,,,,0,185,185,185,1,3,ti,SL_Sounds/ti.wav,,,,,,,
,,,,,,,,,,,,,,,,,,6030cf35e7fec0f5c6d201c5,2021-07-15_06h15.12.021,Agingstudy_sl,2020.2.10,Win32,60,60e99d3dbd08ab8815ee63dc,60efc36f4febab2015ba77c2,,,,,,0,186,186,186,1,1,ko,SL_Sounds/ko.wav,,,,,,,
,,,,,,,,,,,,,,,,,,6030cf35e7fec0f5c6d201c5,2021-07-15_06h15.12.021,Agingstudy_sl,2020.2.10,Win32,60,60e99d3dbd08ab8815ee63dc,60efc36f4febab2015ba77c2,,,,,,0,187,187,187,1,2,ta,SL_Sounds/ta.wav,,,,,,,
,,,,,,,,,,,,,,,,,,6030cf35e7fec0f5c6d201c5,2021-07-15_06h15.12.021,Agingstudy_sl,2020.2.10,Win32,60,60e99d3dbd08ab8815ee63dc,60efc36f4febab2015ba77c2,,,,,,0,188,188,188,1,3,fu,SL_Sounds/fu.wav,,,,,,,
,,,,,,,,,,,,,,,,,,6030cf35e7fec0f5c6d201c5,2021-07-15_06h15.12.021,Agingstudy_sl,2020.2.10,Win32,60,60e99d3dbd08ab8815ee63dc,60efc36f4febab2015ba77c2,,,,,,0,189,189,189,1,1,ni,SL_Sounds/ni.wav,,,,,,,
,,,,,,,,,,,,,,,,,,6030cf35e7fec0f5c6d201c5,2021-07-15_06h15.12.021,Agingstudy_sl,2020.2.10,Win32,60,60e99d3dbd08ab8815ee63dc,60efc36f4febab2015ba77c2,,,,,,0,190,190,190,1,2,ru,SL_Sounds/ru.wav,,,,,,,
,,,,,,,,,,,,,,,,,,6030cf35e7fec0f5c6d201c5,2021-07-15_06h15.12.021,Agingstudy_sl,2020.2.10,Win32,60,60e99d3dbd08ab8815ee63dc,60efc36f4febab2015ba77c2,,,,,,0,191,191,191,1,3,pu,SL_Sounds/pu.wav,,,,,,,
,,,,,,,,,,,,,,,,,,6030cf35e7fec0f5c6d201c5,2021-07-15_06h15.12.021,Agingstudy_sl,2020.2.10,Win32,60,60e99d3dbd08ab8815ee63dc,60efc36f4febab2015ba77c2,,,,,,0,192,192,192,1,1,ko,SL_Sounds/ko.wav,,,,,,,
,,,,,,,,,,,,,,,,,,6030cf35e7fec0f5c6d201c5,2021-07-15_06h15.12.021,Agingstudy_sl,2020.2.10,Win32,60,60e99d3dbd08ab8815ee63dc,60efc36f4febab2015ba77c2,,,,,,0,193,193,193,1,2,ta,SL_Sounds/ta.wav,,,,,,,
,,,,,,,,,,,,,,,,,,6030cf35e7fec0f5c6d201c5,2021-07-15_06h15.12.021,Agingstudy_sl,2020.2.10,Win32,60,60e99d3dbd08ab8815ee63dc,60efc36f4febab2015ba77c2,,,,,,0,194,194,194,1,3,fu,SL_Sounds/fu.wav,,,,,,,
,,,,,,,,,,,,,,,,,,6030cf35e7fec0f5c6d201c5,2021-07-15_06h15.12.021,Agingstudy_sl,2020.2.10,Win32,60,60e99d3dbd08ab8815ee63dc,60efc36f4febab2015ba77c2,,,,,,0,195,195,195,1,1,su,SL_Sounds/su.wav,,,,,,,
,,,,,,,,,,,,,,,,,,6030cf35e7fec0f5c6d201c5,2021-07-15_06h15.12.021,Agingstudy_sl,2020.2.10,Win32,60,60e99d3dbd08ab8815ee63dc,60efc36f4febab2015ba77c2,,,,,,0,196,196,196,1,2,fe,SL_Sounds/fe.wav,,,,,,,
,,,,,,,,,,,,,,,,,,6030cf35e7fec0f5c6d201c5,2021-07-15_06h15.12.021,Agingstudy_sl,2020.2.10,Win32,60,60e99d3dbd08ab8815ee63dc,60efc36f4febab2015ba77c2,,,,,,0,197,197,197,1,3,ti,SL_Sounds/ti.wav,,,,,,,
,,,,,,,,,,,,,,,,,,6030cf35e7fec0f5c6d201c5,2021-07-15_06h15.12.021,Agingstudy_sl,2020.2.10,Win32,60,60e99d3dbd08ab8815ee63dc,60efc36f4febab2015ba77c2,,,,,,0,198,198,198,1,1,me,SL_Sounds/me.wav,,,,,,,
,,,,,,,,,,,,,,,,,,6030cf35e7fec0f5c6d201c5,2021-07-15_06h15.12.021,Agingstudy_sl,2020.2.10,Win32,60,60e99d3dbd08ab8815ee63dc,60efc36f4febab2015ba77c2,,,,,,0,199,199,199,1,2,re,SL_Sounds/re.wav,,,,,,,
,,,,,,,,,,,,,,,,,,6030cf35e7fec0f5c6d201c5,2021-07-15_06h15.12.021,Agingstudy_sl,2020.2.10,Win32,60,60e99d3dbd08ab8815ee63dc,60efc36f4febab2015ba77c2,,,,,,0,200,200,200,1,3,ge,SL_Sounds/ge.wav,,,,,,,
,,,,,,,,,,,,,,,,,,6030cf35e7fec0f5c6d201c5,2021-07-15_06h15.12.021,Agingstudy_sl,2020.2.10,Win32,60,60e99d3dbd08ab8815ee63dc,60efc36f4febab2015ba77c2,,,,,,0,201,201,201,1,1,ni,SL_Sounds/ni.wav,,,,,,,
,,,,,,,,,,,,,,,,,,6030cf35e7fec0f5c6d201c5,2021-07-15_06h15.12.021,Agingstudy_sl,2020.2.10,Win32,60,60e99d3dbd08ab8815ee63dc,60efc36f4febab2015ba77c2,,,,,,0,202,202,202,1,2,ru,SL_Sounds/ru.wav,,,,,,,
,,,,,,,,,,,,,,,,,,6030cf35e7fec0f5c6d201c5,2021-07-15_06h15.12.021,Agingstudy_sl,2020.2.10,Win32,60,60e99d3dbd08ab8815ee63dc,60efc36f4febab2015ba77c2,,,,,,0,203,203,203,1,3,pu,SL_Sounds/pu.wav,,,,,,,
,,,,,,,,,,,,,,,,,,6030cf35e7fec0f5c6d201c5,2021-07-15_06h15.12.021,Agingstudy_sl,2020.2.10,Win32,60,60e99d3dbd08ab8815ee63dc,60efc36f4febab2015ba77c2,,,,,,0,204,204,204,1,1,me,SL_Sounds/me.wav,,,,,,,
,,,,,,,,,,,,,,,,,,6030cf35e7fec0f5c6d201c5,2021-07-15_06h15.12.021,Agingstudy_sl,2020.2.10,Win32,60,60e99d3dbd08ab8815ee63dc,60efc36f4febab2015ba77c2,,,,,,0,205,205,205,1,2,re,SL_Sounds/re.wav,,,,,,,
,,,,,,,,,,,,,,,,,,6030cf35e7fec0f5c6d201c5,2021-07-15_06h15.12.021,Agingstudy_sl,2020.2.10,Win32,60,60e99d3dbd08ab8815ee63dc,60efc36f4febab2015ba77c2,,,,,,0,206,206,206,1,3,ge,SL_Sounds/ge.wav,,,,,,,
,,,,,,,,,,,,,,,,,,6030cf35e7fec0f5c6d201c5,2021-07-15_06h15.12.021,Agingstudy_sl,2020.2.10,Win32,60,60e99d3dbd08ab8815ee63dc,60efc36f4febab2015ba77c2,,,,,,0,207,207,207,1,1,su,SL_Sounds/su.wav,,,,,,,
,,,,,,,,,,,,,,,,,,6030cf35e7fec0f5c6d201c5,2021-07-15_06h15.12.021,Agingstudy_sl,2020.2.10,Win32,60,60e99d3dbd08ab8815ee63dc,60efc36f4febab2015ba77c2,,,,,,0,208,208,208,1,2,fe,SL_Sounds/fe.wav,,,,,,,
,,,,,,,,,,,,,,,,,,6030cf35e7fec0f5c6d201c5,2021-07-15_06h15.12.021,Agingstudy_sl,2020.2.10,Win32,60,60e99d3dbd08ab8815ee63dc,60efc36f4febab2015ba77c2,,,,,,0,209,209,209,1,3,ti,SL_Sounds/ti.wav,,,,,,,
,,,,,,,,,,,,,,,,,,6030cf35e7fec0f5c6d201c5,2021-07-15_06h15.12.021,Agingstudy_sl,2020.2.10,Win32,60,60e99d3dbd08ab8815ee63dc,60efc36f4febab2015ba77c2,,,,,,0,210,210,210,1,1,me,SL_Sounds/me.wav,,,,,,,
,,,,,,,,,,,,,,,,,,6030cf35e7fec0f5c6d201c5,2021-07-15_06h15.12.021,Agingstudy_sl,2020.2.10,Win32,60,60e99d3dbd08ab8815ee63dc,60efc36f4febab2015ba77c2,,,,,,0,211,211,211,1,2,re,SL_Sounds/re.wav,,,,,,,
,,,,,,,,,,,,,,,,,,6030cf35e7fec0f5c6d201c5,2021-07-15_06h15.12.021,Agingstudy_sl,2020.2.10,Win32,60,60e99d3dbd08ab8815ee63dc,60efc36f4febab2015ba77c2,,,,,,0,212,212,212,1,3,ge,SL_Sounds/ge.wav,,,,,,,
,,,,,,,,,,,,,,,,,,6030cf35e7fec0f5c6d201c5,2021-07-15_06h15.12.021,Agingstudy_sl,2020.2.10,Win32,60,60e99d3dbd08ab8815ee63dc,60efc36f4febab2015ba77c2,,,,,,0,213,213,213,1,1,ni,SL_Sounds/ni.wav,,,,,,,
,,,,,,,,,,,,,,,,,,6030cf35e7fec0f5c6d201c5,2021-07-15_06h15.12.021,Agingstudy_sl,2020.2.10,Win32,60,60e99d3dbd08ab8815ee63dc,60efc36f4febab2015ba77c2,,,,,,0,214,214,214,1,2,ru,SL_Sounds/ru.wav,,,,,,,
,,,,,,,,,,,,,,,,,,6030cf35e7fec0f5c6d201c5,2021-07-15_06h15.12.021,Agingstudy_sl,2020.2.10,Win32,60,60e99d3dbd08ab8815ee63dc,60efc36f4febab2015ba77c2,,,,,,0,215,215,215,1,3,pu,SL_Sounds/pu.wav,,,,,,,
,,,,,,,,,,,,,,,,,,6030cf35e7fec0f5c6d201c5,2021-07-15_06h15.12.021,Agingstudy_sl,2020.2.10,Win32,60,60e99d3dbd08ab8815ee63dc,60efc36f4febab2015ba77c2,,,,,,0,216,216,216,1,1,su,SL_Sounds/su.wav,,,,,,,
,,,,,,,,,,,,,,,,,,6030cf35e7fec0f5c6d201c5,2021-07-15_06h15.12.021,Agingstudy_sl,2020.2.10,Win32,60,60e99d3dbd08ab8815ee63dc,60efc36f4febab2015ba77c2,,,,,,0,217,217,217,1,2,fe,SL_Sounds/fe.wav,,,,,,,
,,,,,,,,,,,,,,,,,,6030cf35e7fec0f5c6d201c5,2021-07-15_06h15.12.021,Agingstudy_sl,2020.2.10,Win32,60,60e99d3dbd08ab8815ee63dc,60efc36f4febab2015ba77c2,,,,,,0,218,218,218,1,3,ti,SL_Sounds/ti.wav,,,,,,,
,,,,,,,,,,,,,,,,,,6030cf35e7fec0f5c6d201c5,2021-07-15_06h15.12.021,Agingstudy_sl,2020.2.10,Win32,60,60e99d3dbd08ab8815ee63dc,60efc36f4febab2015ba77c2,,,,,,0,219,219,219,1,1,ko,SL_Sounds/ko.wav,,,,,,,
,,,,,,,,,,,,,,,,,,6030cf35e7fec0f5c6d201c5,2021-07-15_06h15.12.021,Agingstudy_sl,2020.2.10,Win32,60,60e99d3dbd08ab8815ee63dc,60efc36f4febab2015ba77c2,,,,,,0,220,220,220,1,2,ta,SL_Sounds/ta.wav,,,,,,,
,,,,,,,,,,,,,,,,,,6030cf35e7fec0f5c6d201c5,2021-07-15_06h15.12.021,Agingstudy_sl,2020.2.10,Win32,60,60e99d3dbd08ab8815ee63dc,60efc36f4febab2015ba77c2,,,,,,0,221,221,221,1,3,fu,SL_Sounds/fu.wav,,,,,,,
,,,,,,,,,,,,,,,,,,6030cf35e7fec0f5c6d201c5,2021-07-15_06h15.12.021,Agingstudy_sl,2020.2.10,Win32,60,60e99d3dbd08ab8815ee63dc,60efc36f4febab2015ba77c2,,,,,,0,222,222,222,1,1,su,SL_Sounds/su.wav,,,,,,,
,,,,,,,,,,,,,,,,,,6030cf35e7fec0f5c6d201c5,2021-07-15_06h15.12.021,Agingstudy_sl,2020.2.10,Win32,60,60e99d3dbd08ab8815ee63dc,60efc36f4febab2015ba77c2,,,,,,0,223,223,223,1,2,fe,SL_Sounds/fe.wav,,,,,,,
,,,,,,,,,,,,,,,,,,6030cf35e7fec0f5c6d201c5,2021-07-15_06h15.12.021,Agingstudy_sl,2020.2.10,Win32,60,60e99d3dbd08ab8815ee63dc,60efc36f4febab2015ba77c2,,,,,,0,224,224,224,1,3,ti,SL_Sounds/ti.wav,,,,,,,
,,,,,,,,,,,,,,,,,,6030cf35e7fec0f5c6d201c5,2021-07-15_06h15.12.021,Agingstudy_sl,2020.2.10,Win32,60,60e99d3dbd08ab8815ee63dc,60efc36f4febab2015ba77c2,,,,,,0,225,225,225,1,1,me,SL_Sounds/me.wav,,,,,,,
,,,,,,,,,,,,,,,,,,6030cf35e7fec0f5c6d201c5,2021-07-15_06h15.12.021,Agingstudy_sl,2020.2.10,Win32,60,60e99d3dbd08ab8815ee63dc,60efc36f4febab2015ba77c2,,,,,,0,226,226,226,1,2,re,SL_Sounds/re.wav,,,,,,,
,,,,,,,,,,,,,,,,,,6030cf35e7fec0f5c6d201c5,2021-07-15_06h15.12.021,Agingstudy_sl,2020.2.10,Win32,60,60e99d3dbd08ab8815ee63dc,60efc36f4febab2015ba77c2,,,,,,0,227,227,227,1,3,ge,SL_Sounds/ge.wav,,,,,,,
,,,,,,,,,,,,,,,,,,6030cf35e7fec0f5c6d201c5,2021-07-15_06h15.12.021,Agingstudy_sl,2020.2.10,Win32,60,60e99d3dbd08ab8815ee63dc,60efc36f4febab2015ba77c2,,,,,,0,228,228,228,1,1,ko,SL_Sounds/ko.wav,,,,,,,
,,,,,,,,,,,,,,,,,,6030cf35e7fec0f5c6d201c5,2021-07-15_06h15.12.021,Agingstudy_sl,2020.2.10,Win32,60,60e99d3dbd08ab8815ee63dc,60efc36f4febab2015ba77c2,,,,,,0,229,229,229,1,2,ta,SL_Sounds/ta.wav,,,,,,,
,,,,,,,,,,,,,,,,,,6030cf35e7fec0f5c6d201c5,2021-07-15_06h15.12.021,Agingstudy_sl,2020.2.10,Win32,60,60e99d3dbd08ab8815ee63dc,60efc36f4febab2015ba77c2,,,,,,0,230,230,230,1,3,fu,SL_Sounds/fu.wav,,,,,,,
,,,,,,,,,,,,,,,,,,6030cf35e7fec0f5c6d201c5,2021-07-15_06h15.12.021,Agingstudy_sl,2020.2.10,Win32,60,60e99d3dbd08ab8815ee63dc,60efc36f4febab2015ba77c2,,,,,,0,231,231,231,1,1,ni,SL_Sounds/ni.wav,,,,,,,
,,,,,,,,,,,,,,,,,,6030cf35e7fec0f5c6d201c5,2021-07-15_06h15.12.021,Agingstudy_sl,2020.2.10,Win32,60,60e99d3dbd08ab8815ee63dc,60efc36f4febab2015ba77c2,,,,,,0,232,232,232,1,2,ru,SL_Sounds/ru.wav,,,,,,,
,,,,,,,,,,,,,,,,,,6030cf35e7fec0f5c6d201c5,2021-07-15_06h15.12.021,Agingstudy_sl,2020.2.10,Win32,60,60e99d3dbd08ab8815ee63dc,60efc36f4febab2015ba77c2,,,,,,0,233,233,233,1,3,pu,SL_Sounds/pu.wav,,,,,,,
,,,,,,,,,,,,,,,,,,6030cf35e7fec0f5c6d201c5,2021-07-15_06h15.12.021,Agingstudy_sl,2020.2.10,Win32,60,60e99d3dbd08ab8815ee63dc,60efc36f4febab2015ba77c2,,,,,,0,234,234,234,1,1,su,SL_Sounds/su.wav,,,,,,,
,,,,,,,,,,,,,,,,,,6030cf35e7fec0f5c6d201c5,2021-07-15_06h15.12.021,Agingstudy_sl,2020.2.10,Win32,60,60e99d3dbd08ab8815ee63dc,60efc36f4febab2015ba77c2,,,,,,0,235,235,235,1,2,fe,SL_Sounds/fe.wav,,,,,,,
,,,,,,,,,,,,,,,,,,6030cf35e7fec0f5c6d201c5,2021-07-15_06h15.12.021,Agingstudy_sl,2020.2.10,Win32,60,60e99d3dbd08ab8815ee63dc,60efc36f4febab2015ba77c2,,,,,,0,236,236,236,1,3,ti,SL_Sounds/ti.wav,,,,,,,
,,,,,,,,,,,,,,,,,,6030cf35e7fec0f5c6d201c5,2021-07-15_06h15.12.021,Agingstudy_sl,2020.2.10,Win32,60,60e99d3dbd08ab8815ee63dc,60efc36f4febab2015ba77c2,,,,,,0,237,237,237,1,1,ko,SL_Sounds/ko.wav,,,,,,,
,,,,,,,,,,,,,,,,,,6030cf35e7fec0f5c6d201c5,2021-07-15_06h15.12.021,Agingstudy_sl,2020.2.10,Win32,60,60e99d3dbd08ab8815ee63dc,60efc36f4febab2015ba77c2,,,,,,0,238,238,238,1,2,ta,SL_Sounds/ta.wav,,,,,,,
,,,,,,,,,,,,,,,,,,6030cf35e7fec0f5c6d201c5,2021-07-15_06h15.12.021,Agingstudy_sl,2020.2.10,Win32,60,60e99d3dbd08ab8815ee63dc,60efc36f4febab2015ba77c2,,,,,,0,239,239,239,1,3,fu,SL_Sounds/fu.wav,,,,,,,
,,,,,,,,,,,,,,,,,,6030cf35e7fec0f5c6d201c5,2021-07-15_06h15.12.021,Agingstudy_sl,2020.2.10,Win32,60,60e99d3dbd08ab8815ee63dc,60efc36f4febab2015ba77c2,,,,,,0,240,240,240,1,1,ni,SL_Sounds/ni.wav,,,,,,,
,,,,,,,,,,,,,,,,,,6030cf35e7fec0f5c6d201c5,2021-07-15_06h15.12.021,Agingstudy_sl,2020.2.10,Win32,60,60e99d3dbd08ab8815ee63dc,60efc36f4febab2015ba77c2,,,,,,0,241,241,241,1,2,ru,SL_Sounds/ru.wav,,,,,,,
,,,,,,,,,,,,,,,,,,6030cf35e7fec0f5c6d201c5,2021-07-15_06h15.12.021,Agingstudy_sl,2020.2.10,Win32,60,60e99d3dbd08ab8815ee63dc,60efc36f4febab2015ba77c2,,,,,,0,242,242,242,1,3,pu,SL_Sounds/pu.wav,,,,,,,
,,,,,,,,,,,,,,,,,,6030cf35e7fec0f5c6d201c5,2021-07-15_06h15.12.021,Agingstudy_sl,2020.2.10,Win32,60,60e99d3dbd08ab8815ee63dc,60efc36f4febab2015ba77c2,,,,,,0,243,243,243,1,1,su,SL_Sounds/su.wav,,,,,,,
,,,,,,,,,,,,,,,,,,6030cf35e7fec0f5c6d201c5,2021-07-15_06h15.12.021,Agingstudy_sl,2020.2.10,Win32,60,60e99d3dbd08ab8815ee63dc,60efc36f4febab2015ba77c2,,,,,,0,244,244,244,1,2,fe,SL_Sounds/fe.wav,,,,,,,
,,,,,,,,,,,,,,,,,,6030cf35e7fec0f5c6d201c5,2021-07-15_06h15.12.021,Agingstudy_sl,2020.2.10,Win32,60,60e99d3dbd08ab8815ee63dc,60efc36f4febab2015ba77c2,,,,,,0,245,245,245,1,3,ti,SL_Sounds/ti.wav,,,,,,,
,,,,,,,,,,,,,,,,,,6030cf35e7fec0f5c6d201c5,2021-07-15_06h15.12.021,Agingstudy_sl,2020.2.10,Win32,60,60e99d3dbd08ab8815ee63dc,60efc36f4febab2015ba77c2,,,,,,0,246,246,246,1,1,ko,SL_Sounds/ko.wav,,,,,,,
,,,,,,,,,,,,,,,,,,6030cf35e7fec0f5c6d201c5,2021-07-15_06h15.12.021,Agingstudy_sl,2020.2.10,Win32,60,60e99d3dbd08ab8815ee63dc,60efc36f4febab2015ba77c2,,,,,,0,247,247,247,1,2,ta,SL_Sounds/ta.wav,,,,,,,
,,,,,,,,,,,,,,,,,,6030cf35e7fec0f5c6d201c5,2021-07-15_06h15.12.021,Agingstudy_sl,2020.2.10,Win32,60,60e99d3dbd08ab8815ee63dc,60efc36f4febab2015ba77c2,,,,,,0,248,248,248,1,3,fu,SL_Sounds/fu.wav,,,,,,,
,,,,,,,,,,,,,,,,,,6030cf35e7fec0f5c6d201c5,2021-07-15_06h15.12.021,Agingstudy_sl,2020.2.10,Win32,60,60e99d3dbd08ab8815ee63dc,60efc36f4febab2015ba77c2,,,,,,0,249,249,249,1,1,ni,SL_Sounds/ni.wav,,,,,,,
,,,,,,,,,,,,,,,,,,6030cf35e7fec0f5c6d201c5,2021-07-15_06h15.12.021,Agingstudy_sl,2020.2.10,Win32,60,60e99d3dbd08ab8815ee63dc,60efc36f4febab2015ba77c2,,,,,,0,250,250,250,1,2,ru,SL_Sounds/ru.wav,,,,,,,
,,,,,,,,,,,,,,,,,,6030cf35e7fec0f5c6d201c5,2021-07-15_06h15.12.021,Agingstudy_sl,2020.2.10,Win32,60,60e99d3dbd08ab8815ee63dc,60efc36f4febab2015ba77c2,,,,,,0,251,251,251,1,3,pu,SL_Sounds/pu.wav,,,,,,,
,,,,,,,,,,,,,,,,,,6030cf35e7fec0f5c6d201c5,2021-07-15_06h15.12.021,Agingstudy_sl,2020.2.10,Win32,60,60e99d3dbd08ab8815ee63dc,60efc36f4febab2015ba77c2,,,,,,0,252,252,252,1,1,me,SL_Sounds/me.wav,,,,,,,
,,,,,,,,,,,,,,,,,,6030cf35e7fec0f5c6d201c5,2021-07-15_06h15.12.021,Agingstudy_sl,2020.2.10,Win32,60,60e99d3dbd08ab8815ee63dc,60efc36f4febab2015ba77c2,,,,,,0,253,253,253,1,2,re,SL_Sounds/re.wav,,,,,,,
,,,,,,,,,,,,,,,,,,6030cf35e7fec0f5c6d201c5,2021-07-15_06h15.12.021,Agingstudy_sl,2020.2.10,Win32,60,60e99d3dbd08ab8815ee63dc,60efc36f4febab2015ba77c2,,,,,,0,254,254,254,1,3,ge,SL_Sounds/ge.wav,,,,,,,
,,,,,,,,,,,,,,,,,,6030cf35e7fec0f5c6d201c5,2021-07-15_06h15.12.021,Agingstudy_sl,2020.2.10,Win32,60,60e99d3dbd08ab8815ee63dc,60efc36f4febab2015ba77c2,,,,,,0,255,255,255,1,1,su,SL_Sounds/su.wav,,,,,,,
,,,,,,,,,,,,,,,,,,6030cf35e7fec0f5c6d201c5,2021-07-15_06h15.12.021,Agingstudy_sl,2020.2.10,Win32,60,60e99d3dbd08ab8815ee63dc,60efc36f4febab2015ba77c2,,,,,,0,256,256,256,1,2,fe,SL_Sounds/fe.wav,,,,,,,
,,,,,,,,,,,,,,,,,,6030cf35e7fec0f5c6d201c5,2021-07-15_06h15.12.021,Agingstudy_sl,2020.2.10,Win32,60,60e99d3dbd08ab8815ee63dc,60efc36f4febab2015ba77c2,,,,,,0,257,257,257,1,3,ti,SL_Sounds/ti.wav,,,,,,,
,,,,,,,,,,,,,,,,,,6030cf35e7fec0f5c6d201c5,2021-07-15_06h15.12.021,Agingstudy_sl,2020.2.10,Win32,60,60e99d3dbd08ab8815ee63dc,60efc36f4febab2015ba77c2,,,,,,0,258,258,258,1,1,ko,SL_Sounds/ko.wav,,,,,,,
,,,,,,,,,,,,,,,,,,6030cf35e7fec0f5c6d201c5,2021-07-15_06h15.12.021,Agingstudy_sl,2020.2.10,Win32,60,60e99d3dbd08ab8815ee63dc,60efc36f4febab2015ba77c2,,,,,,0,259,259,259,1,2,ta,SL_Sounds/ta.wav,,,,,,,
,,,,,,,,,,,,,,,,,,6030cf35e7fec0f5c6d201c5,2021-07-15_06h15.12.021,Agingstudy_sl,2020.2.10,Win32,60,60e99d3dbd08ab8815ee63dc,60efc36f4febab2015ba77c2,,,,,,0,260,260,260,1,3,fu,SL_Sounds/fu.wav,,,,,,,
,,,,,,,,,,,,,,,,,,6030cf35e7fec0f5c6d201c5,2021-07-15_06h15.12.021,Agingstudy_sl,2020.2.10,Win32,60,60e99d3dbd08ab8815ee63dc,60efc36f4febab2015ba77c2,,,,,,0,261,261,261,1,1,me,SL_Sounds/me.wav,,,,,,,
,,,,,,,,,,,,,,,,,,6030cf35e7fec0f5c6d201c5,2021-07-15_06h15.12.021,Agingstudy_sl,2020.2.10,Win32,60,60e99d3dbd08ab8815ee63dc,60efc36f4febab2015ba77c2,,,,,,0,262,262,262,1,2,re,SL_Sounds/re.wav,,,,,,,
,,,,,,,,,,,,,,,,,,6030cf35e7fec0f5c6d201c5,2021-07-15_06h15.12.021,Agingstudy_sl,2020.2.10,Win32,60,60e99d3dbd08ab8815ee63dc,60efc36f4febab2015ba77c2,,,,,,0,263,263,263,1,3,ge,SL_Sounds/ge.wav,,,,,,,
,,,,,,,,,,,,,,,,,,6030cf35e7fec0f5c6d201c5,2021-07-15_06h15.12.021,Agingstudy_sl,2020.2.10,Win32,60,60e99d3dbd08ab8815ee63dc,60efc36f4febab2015ba77c2,,,,,,0,264,264,264,1,1,ni,SL_Sounds/ni.wav,,,,,,,
,,,,,,,,,,,,,,,,,,6030cf35e7fec0f5c6d201c5,2021-07-15_06h15.12.021,Agingstudy_sl,2020.2.10,Win32,60,60e99d3dbd08ab8815ee63dc,60efc36f4febab2015ba77c2,,,,,,0,265,265,265,1,2,ru,SL_Sounds/ru.wav,,,,,,,
,,,,,,,,,,,,,,,,,,6030cf35e7fec0f5c6d201c5,2021-07-15_06h15.12.021,Agingstudy_sl,2020.2.10,Win32,60,60e99d3dbd08ab8815ee63dc,60efc36f4febab2015ba77c2,,,,,,,,,,,,,,space,0.6873,0,0,0,0,1
,,,,,,,,,,,,,,,,,,6030cf35e7fec0f5c6d201c5,2021-07-15_06h15.12.021,Agingstudy_sl,2020.2.10,Win32,60,60e99d3dbd08ab8815ee63dc,60efc36f4febab2015ba77c2,,,,,,0,266,266,266,1,3,pu,SL_Sounds/pu.wav,,,,,,,
,,,,,,,,,,,,,,,,,,6030cf35e7fec0f5c6d201c5,2021-07-15_06h15.12.021,Agingstudy_sl,2020.2.10,Win32,60,60e99d3dbd08ab8815ee63dc,60efc36f4febab2015ba77c2,,,,,,0,267,267,267,1,1,ko,SL_Sounds/ko.wav,,,,,,,
,,,,,,,,,,,,,,,,,,6030cf35e7fec0f5c6d201c5,2021-07-15_06h15.12.021,Agingstudy_sl,2020.2.10,Win32,60,60e99d3dbd08ab8815ee63dc,60efc36f4febab2015ba77c2,,,,,,0,268,268,268,1,2,ta,SL_Sounds/ta.wav,,,,,,,
,,,,,,,,,,,,,,,,,,6030cf35e7fec0f5c6d201c5,2021-07-15_06h15.12.021,Agingstudy_sl,2020.2.10,Win32,60,60e99d3dbd08ab8815ee63dc,60efc36f4febab2015ba77c2,,,,,,0,269,269,269,1,3,fu,SL_Sounds/fu.wav,,,,,,,
,,,,,,,,,,,,,,,,,,6030cf35e7fec0f5c6d201c5,2021-07-15_06h15.12.021,Agingstudy_sl,2020.2.10,Win32,60,60e99d3dbd08ab8815ee63dc,60efc36f4febab2015ba77c2,,,,,,0,270,270,270,1,1,me,SL_Sounds/me.wav,,,,,,,
,,,,,,,,,,,,,,,,,,6030cf35e7fec0f5c6d201c5,2021-07-15_06h15.12.021,Agingstudy_sl,2020.2.10,Win32,60,60e99d3dbd08ab8815ee63dc,60efc36f4febab2015ba77c2,,,,,,0,271,271,271,1,2,re,SL_Sounds/re.wav,,,,,,,
,,,,,,,,,,,,,,,,,,6030cf35e7fec0f5c6d201c5,2021-07-15_06h15.12.021,Agingstudy_sl,2020.2.10,Win32,60,60e99d3dbd08ab8815ee63dc,60efc36f4febab2015ba77c2,,,,,,0,272,272,272,1,3,ge,SL_Sounds/ge.wav,,,,,,,
,,,,,,,,,,,,,,,,,,6030cf35e7fec0f5c6d201c5,2021-07-15_06h15.12.021,Agingstudy_sl,2020.2.10,Win32,60,60e99d3dbd08ab8815ee63dc,60efc36f4febab2015ba77c2,,,,,,0,273,273,273,1,1,su,SL_Sounds/su.wav,,,,,,,
,,,,,,,,,,,,,,,,,,6030cf35e7fec0f5c6d201c5,2021-07-15_06h15.12.021,Agingstudy_sl,2020.2.10,Win32,60,60e99d3dbd08ab8815ee63dc,60efc36f4febab2015ba77c2,,,,,,0,274,274,274,1,2,fe,SL_Sounds/fe.wav,,,,,,,
,,,,,,,,,,,,,,,,,,6030cf35e7fec0f5c6d201c5,2021-07-15_06h15.12.021,Agingstudy_sl,2020.2.10,Win32,60,60e99d3dbd08ab8815ee63dc,60efc36f4febab2015ba77c2,,,,,,0,275,275,275,1,3,ti,SL_Sounds/ti.wav,,,,,,,
,,,,,,,,,,,,,,,,,,6030cf35e7fec0f5c6d201c5,2021-07-15_06h15.12.021,Agingstudy_sl,2020.2.10,Win32,60,60e99d3dbd08ab8815ee63dc,60efc36f4febab2015ba77c2,,,,,,0,276,276,276,1,1,ko,SL_Sounds/ko.wav,,,,,,,
,,,,,,,,,,,,,,,,,,6030cf35e7fec0f5c6d201c5,2021-07-15_06h15.12.021,Agingstudy_sl,2020.2.10,Win32,60,60e99d3dbd08ab8815ee63dc,60efc36f4febab2015ba77c2,,,,,,0,277,277,277,1,2,ta,SL_Sounds/ta.wav,,,,,,,
,,,,,,,,,,,,,,,,,,6030cf35e7fec0f5c6d201c5,2021-07-15_06h15.12.021,Agingstudy_sl,2020.2.10,Win32,60,60e99d3dbd08ab8815ee63dc,60efc36f4febab2015ba77c2,,,,,,0,278,278,278,1,3,fu,SL_Sounds/fu.wav,,,,,,,
,,,,,,,,,,,,,,,,,,6030cf35e7fec0f5c6d201c5,2021-07-15_06h15.12.021,Agingstudy_sl,2020.2.10,Win32,60,60e99d3dbd08ab8815ee63dc,60efc36f4febab2015ba77c2,,,,,,0,279,279,279,1,1,su,SL_Sounds/su.wav,,,,,,,
,,,,,,,,,,,,,,,,,,6030cf35e7fec0f5c6d201c5,2021-07-15_06h15.12.021,Agingstudy_sl,2020.2.10,Win32,60,60e99d3dbd08ab8815ee63dc,60efc36f4febab2015ba77c2,,,,,,0,280,280,280,1,2,fe,SL_Sounds/fe.wav,,,,,,,
,,,,,,,,,,,,,,,,,,6030cf35e7fec0f5c6d201c5,2021-07-15_06h15.12.021,Agingstudy_sl,2020.2.10,Win32,60,60e99d3dbd08ab8815ee63dc,60efc36f4febab2015ba77c2,,,,,,0,281,281,281,1,3,ti,SL_Sounds/ti.wav,,,,,,,
,,,,,,,,,,,,,,,,,,6030cf35e7fec0f5c6d201c5,2021-07-15_06h15.12.021,Agingstudy_sl,2020.2.10,Win32,60,60e99d3dbd08ab8815ee63dc,60efc36f4febab2015ba77c2,,,,,,0,282,282,282,1,1,ni,SL_Sounds/ni.wav,,,,,,,
,,,,,,,,,,,,,,,,,,6030cf35e7fec0f5c6d201c5,2021-07-15_06h15.12.021,Agingstudy_sl,2020.2.10,Win32,60,60e99d3dbd08ab8815ee63dc,60efc36f4febab2015ba77c2,,,,,,0,283,283,283,1,2,ru,SL_Sounds/ru.wav,,,,,,,
,,,,,,,,,,,,,,,,,,6030cf35e7fec0f5c6d201c5,2021-07-15_06h15.12.021,Agingstudy_sl,2020.2.10,Win32,60,60e99d3dbd08ab8815ee63dc,60efc36f4febab2015ba77c2,,,,,,0,284,284,284,1,3,pu,SL_Sounds/pu.wav,,,,,,,
,,,,,,,,,,,,,,,,,,6030cf35e7fec0f5c6d201c5,2021-07-15_06h15.12.021,Agingstudy_sl,2020.2.10,Win32,60,60e99d3dbd08ab8815ee63dc,60efc36f4febab2015ba77c2,,,,,,0,285,285,285,1,1,ko,SL_Sounds/ko.wav,,,,,,,
,,,,,,,,,,,,,,,,,,6030cf35e7fec0f5c6d201c5,2021-07-15_06h15.12.021,Agingstudy_sl,2020.2.10,Win32,60,60e99d3dbd08ab8815ee63dc,60efc36f4febab2015ba77c2,,,,,,0,286,286,286,1,2,ta,SL_Sounds/ta.wav,,,,,,,
,,,,,,,,,,,,,,,,,,6030cf35e7fec0f5c6d201c5,2021-07-15_06h15.12.021,Agingstudy_sl,2020.2.10,Win32,60,60e99d3dbd08ab8815ee63dc,60efc36f4febab2015ba77c2,,,,,,0,287,287,287,1,3,fu,SL_Sounds/fu.wav,,,,,,,
,,,,,,,,,,,,,,,,,,6030cf35e7fec0f5c6d201c5,2021-07-15_06h15.12.021,Agingstudy_sl,2020.2.10,Win32,60,60e99d3dbd08ab8815ee63dc,60efc36f4febab2015ba77c2,,,,,,0,288,288,288,1,1,ni,SL_Sounds/ni.wav,,,,,,,
,,,,,,,,,,,,,,,,,,6030cf35e7fec0f5c6d201c5,2021-07-15_06h15.12.021,Agingstudy_sl,2020.2.10,Win32,60,60e99d3dbd08ab8815ee63dc,60efc36f4febab2015ba77c2,,,,,,0,289,289,289,1,2,ru,SL_Sounds/ru.wav,,,,,,,
,,,,,,,,,,,,,,,,,,6030cf35e7fec0f5c6d201c5,2021-07-15_06h15.12.021,Agingstudy_sl,2020.2.10,Win32,60,60e99d3dbd08ab8815ee63dc,60efc36f4febab2015ba77c2,,,,,,0,290,290,290,1,3,pu,SL_Sounds/pu.wav,,,,,,,
,,,,,,,,,,,,,,,,,,6030cf35e7fec0f5c6d201c5,2021-07-15_06h15.12.021,Agingstudy_sl,2020.2.10,Win32,60,60e99d3dbd08ab8815ee63dc,60efc36f4febab2015ba77c2,,,,,,0,291,291,291,1,1,me,SL_Sounds/me.wav,,,,,,,
,,,,,,,,,,,,,,,,,,6030cf35e7fec0f5c6d201c5,2021-07-15_06h15.12.021,Agingstudy_sl,2020.2.10,Win32,60,60e99d3dbd08ab8815ee63dc,60efc36f4febab2015ba77c2,,,,,,0,292,292,292,1,2,re,SL_Sounds/re.wav,,,,,,,
,,,,,,,,,,,,,,,,,,6030cf35e7fec0f5c6d201c5,2021-07-15_06h15.12.021,Agingstudy_sl,2020.2.10,Win32,60,60e99d3dbd08ab8815ee63dc,60efc36f4febab2015ba77c2,,,,,,0,293,293,293,1,3,ge,SL_Sounds/ge.wav,,,,,,,
,,,,,,,,,,,,,,,,,,6030cf35e7fec0f5c6d201c5,2021-07-15_06h15.12.021,Agingstudy_sl,2020.2.10,Win32,60,60e99d3dbd08ab8815ee63dc,60efc36f4febab2015ba77c2,,,,,,0,294,294,294,1,1,ni,SL_Sounds/ni.wav,,,,,,,
,,,,,,,,,,,,,,,,,,6030cf35e7fec0f5c6d201c5,2021-07-15_06h15.12.021,Agingstudy_sl,2020.2.10,Win32,60,60e99d3dbd08ab8815ee63dc,60efc36f4febab2015ba77c2,,,,,,0,295,295,295,1,2,ru,SL_Sounds/ru.wav,,,,,,,
,,,,,,,,,,,,,,,,,,6030cf35e7fec0f5c6d201c5,2021-07-15_06h15.12.021,Agingstudy_sl,2020.2.10,Win32,60,60e99d3dbd08ab8815ee63dc,60efc36f4febab2015ba77c2,,,,,,0,296,296,296,1,3,pu,SL_Sounds/pu.wav,,,,,,,
,,,,,,,,,,,,,,,,,,6030cf35e7fec0f5c6d201c5,2021-07-15_06h15.12.021,Agingstudy_sl,2020.2.10,Win32,60,60e99d3dbd08ab8815ee63dc,60efc36f4febab2015ba77c2,,,,,,0,297,297,297,1,1,me,SL_Sounds/me.wav,,,,,,,
,,,,,,,,,,,,,,,,,,6030cf35e7fec0f5c6d201c5,2021-07-15_06h15.12.021,Agingstudy_sl,2020.2.10,Win32,60,60e99d3dbd08ab8815ee63dc,60efc36f4febab2015ba77c2,,,,,,0,298,298,298,1,2,re,SL_Sounds/re.wav,,,,,,,
,,,,,,,,,,,,,,,,,,6030cf35e7fec0f5c6d201c5,2021-07-15_06h15.12.021,Agingstudy_sl,2020.2.10,Win32,60,60e99d3dbd08ab8815ee63dc,60efc36f4febab2015ba77c2,,,,,,,,,,,,,,space,0.8696,0,0,0,0,1
,,,,,,,,,,,,,,,,,,6030cf35e7fec0f5c6d201c5,2021-07-15_06h15.12.021,Agingstudy_sl,2020.2.10,Win32,60,60e99d3dbd08ab8815ee63dc,60efc36f4febab2015ba77c2,,,,,,0,299,299,299,1,3,ge,SL_Sounds/ge.wav,,,,,,,
,,,,,,,,,,,,,,,,,,6030cf35e7fec0f5c6d201c5,2021-07-15_06h15.12.021,Agingstudy_sl,2020.2.10,Win32,60,60e99d3dbd08ab8815ee63dc,60efc36f4febab2015ba77c2,,,,,,0,300,300,300,1,1,ni,SL_Sounds/ni.wav,,,,,,,
,,,,,,,,,,,,,,,,,,6030cf35e7fec0f5c6d201c5,2021-07-15_06h15.12.021,Agingstudy_sl,2020.2.10,Win32,60,60e99d3dbd08ab8815ee63dc,60efc36f4febab2015ba77c2,,,,,,0,301,301,301,1,2,ru,SL_Sounds/ru.wav,,,,,,,
,,,,,,,,,,,,,,,,,,6030cf35e7fec0f5c6d201c5,2021-07-15_06h15.12.021,Agingstudy_sl,2020.2.10,Win32,60,60e99d3dbd08ab8815ee63dc,60efc36f4febab2015ba77c2,,,,,,0,302,302,302,1,3,pu,SL_Sounds/pu.wav,,,,,,,
,,,,,,,,,,,,,,,,,,6030cf35e7fec0f5c6d201c5,2021-07-15_06h15.12.021,Agingstudy_sl,2020.2.10,Win32,60,60e99d3dbd08ab8815ee63dc,60efc36f4febab2015ba77c2,,,,,,0,303,303,303,1,1,su,SL_Sounds/su.wav,,,,,,,
,,,,,,,,,,,,,,,,,,6030cf35e7fec0f5c6d201c5,2021-07-15_06h15.12.021,Agingstudy_sl,2020.2.10,Win32,60,60e99d3dbd08ab8815ee63dc,60efc36f4febab2015ba77c2,,,,,,0,304,304,304,1,2,fe,SL_Sounds/fe.wav,,,,,,,
,,,,,,,,,,,,,,,,,,6030cf35e7fec0f5c6d201c5,2021-07-15_06h15.12.021,Agingstudy_sl,2020.2.10,Win32,60,60e99d3dbd08ab8815ee63dc,60efc36f4febab2015ba77c2,,,,,,0,305,305,305,1,3,ti,SL_Sounds/ti.wav,,,,,,,
,,,,,,,,,,,,,,,,,,6030cf35e7fec0f5c6d201c5,2021-07-15_06h15.12.021,Agingstudy_sl,2020.2.10,Win32,60,60e99d3dbd08ab8815ee63dc,60efc36f4febab2015ba77c2,,,,,,0,306,306,306,1,1,me,SL_Sounds/me.wav,,,,,,,
,,,,,,,,,,,,,,,,,,6030cf35e7fec0f5c6d201c5,2021-07-15_06h15.12.021,Agingstudy_sl,2020.2.10,Win32,60,60e99d3dbd08ab8815ee63dc,60efc36f4febab2015ba77c2,,,,,,0,307,307,307,1,2,re,SL_Sounds/re.wav,,,,,,,
,,,,,,,,,,,,,,,,,,6030cf35e7fec0f5c6d201c5,2021-07-15_06h15.12.021,Agingstudy_sl,2020.2.10,Win32,60,60e99d3dbd08ab8815ee63dc,60efc36f4febab2015ba77c2,,,,,,0,308,308,308,1,3,ge,SL_Sounds/ge.wav,,,,,,,
,,,,,,,,,,,,,,,,,,6030cf35e7fec0f5c6d201c5,2021-07-15_06h15.12.021,Agingstudy_sl,2020.2.10,Win32,60,60e99d3dbd08ab8815ee63dc,60efc36f4febab2015ba77c2,,,,,,0,309,309,309,1,1,ko,SL_Sounds/ko.wav,,,,,,,
,,,,,,,,,,,,,,,,,,6030cf35e7fec0f5c6d201c5,2021-07-15_06h15.12.021,Agingstudy_sl,2020.2.10,Win32,60,60e99d3dbd08ab8815ee63dc,60efc36f4febab2015ba77c2,,,,,,0,310,310,310,1,2,ta,SL_Sounds/ta.wav,,,,,,,
,,,,,,,,,,,,,,,,,,6030cf35e7fec0f5c6d201c5,2021-07-15_06h15.12.021,Agingstudy_sl,2020.2.10,Win32,60,60e99d3dbd08ab8815ee63dc,60efc36f4febab2015ba77c2,,,,,,0,311,311,311,1,3,fu,SL_Sounds/fu.wav,,,,,,,
,,,,,,,,,,,,,,,,,,6030cf35e7fec0f5c6d201c5,2021-07-15_06h15.12.021,Agingstudy_sl,2020.2.10,Win32,60,60e99d3dbd08ab8815ee63dc,60efc36f4febab2015ba77c2,,,,,,0,312,312,312,1,1,me,SL_Sounds/me.wav,,,,,,,
,,,,,,,,,,,,,,,,,,6030cf35e7fec0f5c6d201c5,2021-07-15_06h15.12.021,Agingstudy_sl,2020.2.10,Win32,60,60e99d3dbd08ab8815ee63dc,60efc36f4febab2015ba77c2,,,,,,0,313,313,313,1,2,re,SL_Sounds/re.wav,,,,,,,
,,,,,,,,,,,,,,,,,,6030cf35e7fec0f5c6d201c5,2021-07-15_06h15.12.021,Agingstudy_sl,2020.2.10,Win32,60,60e99d3dbd08ab8815ee63dc,60efc36f4febab2015ba77c2,,,,,,0,314,314,314,1,3,ge,SL_Sounds/ge.wav,,,,,,,
,,,,,,,,,,,,,,,,,,6030cf35e7fec0f5c6d201c5,2021-07-15_06h15.12.021,Agingstudy_sl,2020.2.10,Win32,60,60e99d3dbd08ab8815ee63dc,60efc36f4febab2015ba77c2,,,,,,0,315,315,315,1,1,ni,SL_Sounds/ni.wav,,,,,,,
,,,,,,,,,,,,,,,,,,6030cf35e7fec0f5c6d201c5,2021-07-15_06h15.12.021,Agingstudy_sl,2020.2.10,Win32,60,60e99d3dbd08ab8815ee63dc,60efc36f4febab2015ba77c2,,,,,,0,316,316,316,1,2,ru,SL_Sounds/ru.wav,,,,,,,
,,,,,,,,,,,,,,,,,,6030cf35e7fec0f5c6d201c5,2021-07-15_06h15.12.021,Agingstudy_sl,2020.2.10,Win32,60,60e99d3dbd08ab8815ee63dc,60efc36f4febab2015ba77c2,,,,,,0,317,317,317,1,3,pu,SL_Sounds/pu.wav,,,,,,,
,,,,,,,,,,,,,,,,,,6030cf35e7fec0f5c6d201c5,2021-07-15_06h15.12.021,Agingstudy_sl,2020.2.10,Win32,60,60e99d3dbd08ab8815ee63dc,60efc36f4febab2015ba77c2,,,,,,0,318,318,318,1,1,ko,SL_Sounds/ko.wav,,,,,,,
,,,,,,,,,,,,,,,,,,6030cf35e7fec0f5c6d201c5,2021-07-15_06h15.12.021,Agingstudy_sl,2020.2.10,Win32,60,60e99d3dbd08ab8815ee63dc,60efc36f4febab2015ba77c2,,,,,,0,319,319,319,1,2,ta,SL_Sounds/ta.wav,,,,,,,
,,,,,,,,,,,,,,,,,,6030cf35e7fec0f5c6d201c5,2021-07-15_06h15.12.021,Agingstudy_sl,2020.2.10,Win32,60,60e99d3dbd08ab8815ee63dc,60efc36f4febab2015ba77c2,,,,,,0,320,320,320,1,3,fu,SL_Sounds/fu.wav,,,,,,,
,,,,,,,,,,,,,,,,,,6030cf35e7fec0f5c6d201c5,2021-07-15_06h15.12.021,Agingstudy_sl,2020.2.10,Win32,60,60e99d3dbd08ab8815ee63dc,60efc36f4febab2015ba77c2,,,,,,0,321,321,321,1,1,su,SL_Sounds/su.wav,,,,,,,
,,,,,,,,,,,,,,,,,,6030cf35e7fec0f5c6d201c5,2021-07-15_06h15.12.021,Agingstudy_sl,2020.2.10,Win32,60,60e99d3dbd08ab8815ee63dc,60efc36f4febab2015ba77c2,,,,,,0,322,322,322,1,2,fe,SL_Sounds/fe.wav,,,,,,,
,,,,,,,,,,,,,,,,,,6030cf35e7fec0f5c6d201c5,2021-07-15_06h15.12.021,Agingstudy_sl,2020.2.10,Win32,60,60e99d3dbd08ab8815ee63dc,60efc36f4febab2015ba77c2,,,,,,0,323,323,323,1,3,ti,SL_Sounds/ti.wav,,,,,,,
,,,,,,,,,,,,,,,,,,6030cf35e7fec0f5c6d201c5,2021-07-15_06h15.12.021,Agingstudy_sl,2020.2.10,Win32,60,60e99d3dbd08ab8815ee63dc,60efc36f4febab2015ba77c2,,,,,,0,324,324,324,1,1,ko,SL_Sounds/ko.wav,,,,,,,
,,,,,,,,,,,,,,,,,,6030cf35e7fec0f5c6d201c5,2021-07-15_06h15.12.021,Agingstudy_sl,2020.2.10,Win32,60,60e99d3dbd08ab8815ee63dc,60efc36f4febab2015ba77c2,,,,,,0,325,325,325,1,2,ta,SL_Sounds/ta.wav,,,,,,,
,,,,,,,,,,,,,,,,,,6030cf35e7fec0f5c6d201c5,2021-07-15_06h15.12.021,Agingstudy_sl,2020.2.10,Win32,60,60e99d3dbd08ab8815ee63dc,60efc36f4febab2015ba77c2,,,,,,0,326,326,326,1,3,fu,SL_Sounds/fu.wav,,,,,,,
,,,,,,,,,,,,,,,,,,6030cf35e7fec0f5c6d201c5,2021-07-15_06h15.12.021,Agingstudy_sl,2020.2.10,Win32,60,60e99d3dbd08ab8815ee63dc,60efc36f4febab2015ba77c2,,,,,,0,327,327,327,1,1,su,SL_Sounds/su.wav,,,,,,,
,,,,,,,,,,,,,,,,,,6030cf35e7fec0f5c6d201c5,2021-07-15_06h15.12.021,Agingstudy_sl,2020.2.10,Win32,60,60e99d3dbd08ab8815ee63dc,60efc36f4febab2015ba77c2,,,,,,0,328,328,328,1,2,fe,SL_Sounds/fe.wav,,,,,,,
,,,,,,,,,,,,,,,,,,6030cf35e7fec0f5c6d201c5,2021-07-15_06h15.12.021,Agingstudy_sl,2020.2.10,Win32,60,60e99d3dbd08ab8815ee63dc,60efc36f4febab2015ba77c2,,,,,,0,329,329,329,1,3,ti,SL_Sounds/ti.wav,,,,,,,
,,,,,,,,,,,,,,,,,,6030cf35e7fec0f5c6d201c5,2021-07-15_06h15.12.021,Agingstudy_sl,2020.2.10,Win32,60,60e99d3dbd08ab8815ee63dc,60efc36f4febab2015ba77c2,,,,,,0,330,330,330,1,1,me,SL_Sounds/me.wav,,,,,,,
,,,,,,,,,,,,,,,,,,6030cf35e7fec0f5c6d201c5,2021-07-15_06h15.12.021,Agingstudy_sl,2020.2.10,Win32,60,60e99d3dbd08ab8815ee63dc,60efc36f4febab2015ba77c2,,,,,,0,331,331,331,1,2,re,SL_Sounds/re.wav,,,,,,,
,,,,,,,,,,,,,,,,,,6030cf35e7fec0f5c6d201c5,2021-07-15_06h15.12.021,Agingstudy_sl,2020.2.10,Win32,60,60e99d3dbd08ab8815ee63dc,60efc36f4febab2015ba77c2,,,,,,0,332,332,332,1,3,ge,SL_Sounds/ge.wav,,,,,,,
,,,,,,,,,,,,,,,,,,6030cf35e7fec0f5c6d201c5,2021-07-15_06h15.12.021,Agingstudy_sl,2020.2.10,Win32,60,60e99d3dbd08ab8815ee63dc,60efc36f4febab2015ba77c2,,,,,,0,333,333,333,1,1,ni,SL_Sounds/ni.wav,,,,,,,
,,,,,,,,,,,,,,,,,,6030cf35e7fec0f5c6d201c5,2021-07-15_06h15.12.021,Agingstudy_sl,2020.2.10,Win32,60,60e99d3dbd08ab8815ee63dc,60efc36f4febab2015ba77c2,,,,,,0,334,334,334,1,2,ru,SL_Sounds/ru.wav,,,,,,,
,,,,,,,,,,,,,,,,,,6030cf35e7fec0f5c6d201c5,2021-07-15_06h15.12.021,Agingstudy_sl,2020.2.10,Win32,60,60e99d3dbd08ab8815ee63dc,60efc36f4febab2015ba77c2,,,,,,0,335,335,335,1,3,pu,SL_Sounds/pu.wav,,,,,,,
,,,,,,,,,,,,,,,,,,6030cf35e7fec0f5c6d201c5,2021-07-15_06h15.12.021,Agingstudy_sl,2020.2.10,Win32,60,60e99d3dbd08ab8815ee63dc,60efc36f4febab2015ba77c2,,,,,,0,336,336,336,1,1,ko,SL_Sounds/ko.wav,,,,,,,
,,,,,,,,,,,,,,,,,,6030cf35e7fec0f5c6d201c5,2021-07-15_06h15.12.021,Agingstudy_sl,2020.2.10,Win32,60,60e99d3dbd08ab8815ee63dc,60efc36f4febab2015ba77c2,,,,,,0,337,337,337,1,2,ta,SL_Sounds/ta.wav,,,,,,,
,,,,,,,,,,,,,,,,,,6030cf35e7fec0f5c6d201c5,2021-07-15_06h15.12.021,Agingstudy_sl,2020.2.10,Win32,60,60e99d3dbd08ab8815ee63dc,60efc36f4febab2015ba77c2,,,,,,0,338,338,338,1,3,fu,SL_Sounds/fu.wav,,,,,,,
,,,,,,,,,,,,,,,,,,6030cf35e7fec0f5c6d201c5,2021-07-15_06h15.12.021,Agingstudy_sl,2020.2.10,Win32,60,60e99d3dbd08ab8815ee63dc,60efc36f4febab2015ba77c2,,,,,,0,339,339,339,1,1,me,SL_Sounds/me.wav,,,,,,,
,,,,,,,,,,,,,,,,,,6030cf35e7fec0f5c6d201c5,2021-07-15_06h15.12.021,Agingstudy_sl,2020.2.10,Win32,60,60e99d3dbd08ab8815ee63dc,60efc36f4febab2015ba77c2,,,,,,0,340,340,340,1,2,re,SL_Sounds/re.wav,,,,,,,
,,,,,,,,,,,,,,,,,,6030cf35e7fec0f5c6d201c5,2021-07-15_06h15.12.021,Agingstudy_sl,2020.2.10,Win32,60,60e99d3dbd08ab8815ee63dc,60efc36f4febab2015ba77c2,,,,,,0,341,341,341,1,3,ge,SL_Sounds/ge.wav,,,,,,,
,,,,,,,,,,,,,,,,,,6030cf35e7fec0f5c6d201c5,2021-07-15_06h15.12.021,Agingstudy_sl,2020.2.10,Win32,60,60e99d3dbd08ab8815ee63dc,60efc36f4febab2015ba77c2,,,,,,0,342,342,342,1,1,ni,SL_Sounds/ni.wav,,,,,,,
,,,,,,,,,,,,,,,,,,6030cf35e7fec0f5c6d201c5,2021-07-15_06h15.12.021,Agingstudy_sl,2020.2.10,Win32,60,60e99d3dbd08ab8815ee63dc,60efc36f4febab2015ba77c2,,,,,,0,343,343,343,1,2,ru,SL_Sounds/ru.wav,,,,,,,
,,,,,,,,,,,,,,,,,,6030cf35e7fec0f5c6d201c5,2021-07-15_06h15.12.021,Agingstudy_sl,2020.2.10,Win32,60,60e99d3dbd08ab8815ee63dc,60efc36f4febab2015ba77c2,,,,,,0,344,344,344,1,3,pu,SL_Sounds/pu.wav,,,,,,,
,,,,,,,,,,,,,,,,,,6030cf35e7fec0f5c6d201c5,2021-07-15_06h15.12.021,Agingstudy_sl,2020.2.10,Win32,60,60e99d3dbd08ab8815ee63dc,60efc36f4febab2015ba77c2,,,,,,0,345,345,345,1,1,su,SL_Sounds/su.wav,,,,,,,
,,,,,,,,,,,,,,,,,,6030cf35e7fec0f5c6d201c5,2021-07-15_06h15.12.021,Agingstudy_sl,2020.2.10,Win32,60,60e99d3dbd08ab8815ee63dc,60efc36f4febab2015ba77c2,,,,,,0,346,346,346,1,2,fe,SL_Sounds/fe.wav,,,,,,,
,,,,,,,,,,,,,,,,,,6030cf35e7fec0f5c6d201c5,2021-07-15_06h15.12.021,Agingstudy_sl,2020.2.10,Win32,60,60e99d3dbd08ab8815ee63dc,60efc36f4febab2015ba77c2,,,,,,0,347,347,347,1,3,ti,SL_Sounds/ti.wav,,,,,,,
,,,,,,,,,,,,,,,,,,6030cf35e7fec0f5c6d201c5,2021-07-15_06h15.12.021,Agingstudy_sl,2020.2.10,Win32,60,60e99d3dbd08ab8815ee63dc,60efc36f4febab2015ba77c2,,,,,,0,348,348,348,1,1,ko,SL_Sounds/ko.wav,,,,,,,
,,,,,,,,,,,,,,,,,,6030cf35e7fec0f5c6d201c5,2021-07-15_06h15.12.021,Agingstudy_sl,2020.2.10,Win32,60,60e99d3dbd08ab8815ee63dc,60efc36f4febab2015ba77c2,,,,,,0,349,349,349,1,2,ta,SL_Sounds/ta.wav,,,,,,,
,,,,,,,,,,,,,,,,,,6030cf35e7fec0f5c6d201c5,2021-07-15_06h15.12.021,Agingstudy_sl,2020.2.10,Win32,60,60e99d3dbd08ab8815ee63dc,60efc36f4febab2015ba77c2,,,,,,0,350,350,350,1,3,fu,SL_Sounds/fu.wav,,,,,,,
,,,,,,,,,,,,,,,,,,6030cf35e7fec0f5c6d201c5,2021-07-15_06h15.12.021,Agingstudy_sl,2020.2.10,Win32,60,60e99d3dbd08ab8815ee63dc,60efc36f4febab2015ba77c2,,,,,,0,351,351,351,1,1,ni,SL_Sounds/ni.wav,,,,,,,
,,,,,,,,,,,,,,,,,,6030cf35e7fec0f5c6d201c5,2021-07-15_06h15.12.021,Agingstudy_sl,2020.2.10,Win32,60,60e99d3dbd08ab8815ee63dc,60efc36f4febab2015ba77c2,,,,,,0,352,352,352,1,2,ru,SL_Sounds/ru.wav,,,,,,,
,,,,,,,,,,,,,,,,,,6030cf35e7fec0f5c6d201c5,2021-07-15_06h15.12.021,Agingstudy_sl,2020.2.10,Win32,60,60e99d3dbd08ab8815ee63dc,60efc36f4febab2015ba77c2,,,,,,0,353,353,353,1,3,pu,SL_Sounds/pu.wav,,,,,,,
,,,,,,,,,,,,,,,,,,6030cf35e7fec0f5c6d201c5,2021-07-15_06h15.12.021,Agingstudy_sl,2020.2.10,Win32,60,60e99d3dbd08ab8815ee63dc,60efc36f4febab2015ba77c2,,,,,,0,354,354,354,1,1,su,SL_Sounds/su.wav,,,,,,,
,,,,,,,,,,,,,,,,,,6030cf35e7fec0f5c6d201c5,2021-07-15_06h15.12.021,Agingstudy_sl,2020.2.10,Win32,60,60e99d3dbd08ab8815ee63dc,60efc36f4febab2015ba77c2,,,,,,0,355,355,355,1,2,fe,SL_Sounds/fe.wav,,,,,,,
,,,,,,,,,,,,,,,,,,6030cf35e7fec0f5c6d201c5,2021-07-15_06h15.12.021,Agingstudy_sl,2020.2.10,Win32,60,60e99d3dbd08ab8815ee63dc,60efc36f4febab2015ba77c2,,,,,,0,356,356,356,1,3,ti,SL_Sounds/ti.wav,,,,,,,
,,,,,,,,,,,,,,,,,,6030cf35e7fec0f5c6d201c5,2021-07-15_06h15.12.021,Agingstudy_sl,2020.2.10,Win32,60,60e99d3dbd08ab8815ee63dc,60efc36f4febab2015ba77c2,,,,,,0,357,357,357,1,1,me,SL_Sounds/me.wav,,,,,,,
,,,,,,,,,,,,,,,,,,6030cf35e7fec0f5c6d201c5,2021-07-15_06h15.12.021,Agingstudy_sl,2020.2.10,Win32,60,60e99d3dbd08ab8815ee63dc,60efc36f4febab2015ba77c2,,,,,,0,358,358,358,1,2,re,SL_Sounds/re.wav,,,,,,,
