Welcome0Continue.keys,Welcome0Continue.rt,SoundCheckBegin.keys,SoundCheckBegin.rt,SoundCheckEndKey.keys,SoundCheckEndKey.rt,HeadphoneContinueKey.keys,HeadphoneContinueKey.rt,CheckResp.keys,CheckResp.corr,CheckResp.rt,HeadphoneLoop.thisRepN,HeadphoneLoop.thisTrialN,HeadphoneLoop.thisN,HeadphoneLoop.thisIndex,HeadphoneLoop.ran,File,Correct,participant,date,expName,psychopyVersion,OS,frameRate,STUDY_ID,SESSION_ID,ContinueKey8.keys,ContinueKey8.rt,MSTWelcomeContKey.keys,MSTWelcomeContKey.rt,Condition,MSTTrainIntroKey.keys,MSTTrainIntroKey.rt,MSTTrainKeys.keys,MSTTrainKeys.corr,MSTTrainKeys.rt,MSTTrainLoop.thisRepN,MSTTrainLoop.thisTrialN,MSTTrainLoop.thisN,MSTTrainLoop.thisIndex,MSTTrainLoop.ran,SoundFile,Type,MSTTestBeginKey.keys,MSTTestBeginKey.rt,MST_resp.keys,MST_resp.corr,MST_resp.rt,MSTPlayLoop.thisRepN,MSTPlayLoop.thisTrialN,MSTPlayLoop.thisN,MSTPlayLoop.thisIndex,MSTPlayLoop.ran,WordCorrect,Correct_type,WordType,MSTLoop.thisRepN,MSTLoop.thisTrialN,MSTLoop.thisN,MSTLoop.thisIndex,MSTLoop.ran,EndAllKey.keys,EndAllKey.rt,FeedbackResp.text
space,7.2294,space,8.4138,space,41.538,space,11.4146,1,0,7.5421,0,0,0,4,1,Headphone/t3_1.wav,3,606212affa13aada679c17b2,2021-07-12_14h07.36.643,Agingstudy_mst,2020.2.10,Win32,60,60e99bd7bc9be7be49ca9171,60ec84b9ba771f73b69248b6,,,,,,,,,,,,,,,,,,,,,,,,,,,,,,,,,,,,,,
,,,,,,,,2,1,3.0124,0,1,1,2,1,Headphone/t2_1.wav,2,606212affa13aada679c17b2,2021-07-12_14h07.36.643,Agingstudy_mst,2020.2.10,Win32,60,60e99bd7bc9be7be49ca9171,60ec84b9ba771f73b69248b6,,,,,,,,,,,,,,,,,,,,,,,,,,,,,,,,,,,,,,
,,,,,,,,3,1,0.2138,0,2,2,5,1,Headphone/t3_2.wav,3,606212affa13aada679c17b2,2021-07-12_14h07.36.643,Agingstudy_mst,2020.2.10,Win32,60,60e99bd7bc9be7be49ca9171,60ec84b9ba771f73b69248b6,,,,,,,,,,,,,,,,,,,,,,,,,,,,,,,,,,,,,,
,,,,,,,,1,1,15.7153,0,3,3,0,1,Headphone/t1_1.wav,1,606212affa13aada679c17b2,2021-07-12_14h07.36.643,Agingstudy_mst,2020.2.10,Win32,60,60e99bd7bc9be7be49ca9171,60ec84b9ba771f73b69248b6,,,,,,,,,,,,,,,,,,,,,,,,,,,,,,,,,,,,,,
,,,,,,,,2,1,1.4393,0,4,4,3,1,Headphone/t2_2.wav,2,606212affa13aada679c17b2,2021-07-12_14h07.36.643,Agingstudy_mst,2020.2.10,Win32,60,60e99bd7bc9be7be49ca9171,60ec84b9ba771f73b69248b6,,,,,,,,,,,,,,,,,,,,,,,,,,,,,,,,,,,,,,
,,,,,,,,1,1,3.5203,0,5,5,1,1,Headphone/t1_2.wav,1,606212affa13aada679c17b2,2021-07-12_14h07.36.643,Agingstudy_mst,2020.2.10,Win32,60,60e99bd7bc9be7be49ca9171,60ec84b9ba771f73b69248b6,,,,,,,,,,,,,,,,,,,,,,,,,,,,,,,,,,,,,,
,,,,,,,,,,,,,,,,,2,606212affa13aada679c17b2,2021-07-12_14h07.36.643,Agingstudy_mst,2020.2.10,Win32,60,60e99bd7bc9be7be49ca9171,60ec84b9ba771f73b69248b6,space,22.9352,space,22.0456,1,space,10.7154,2,1,11.4354,0,0,0,0,1,Training/FO_YI_LAY.wav,NEW,,,,,,,,,,,,,,,,,,,,,
,,,,,,,,,,,,,,,,,1,606212affa13aada679c17b2,2021-07-12_14h07.36.643,Agingstudy_mst,2020.2.10,Win32,60,60e99bd7bc9be7be49ca9171,60ec84b9ba771f73b69248b6,,,,,,,,1,1,3.1976,0,1,1,1,1,Training/FO_YI_LAY.wav,OLD,,,,,,,,,,,,,,,,,,,,,
,,,,,,,,,,,,,,,,,2,606212affa13aada679c17b2,2021-07-12_14h07.36.643,Agingstudy_mst,2020.2.10,Win32,60,60e99bd7bc9be7be49ca9171,60ec84b9ba771f73b69248b6,,,,,,,,2,1,1.9766,0,2,2,2,1,Training/YO_BU_JAY.wav,NEW,,,,,,,,,,,,,,,,,,,,,
,,,,,,,,,,,,,,,,,2,606212affa13aada679c17b2,2021-07-12_14h07.36.643,Agingstudy_mst,2020.2.10,Win32,60,60e99bd7bc9be7be49ca9171,60ec84b9ba771f73b69248b6,,,,,,,,2,1,2.6846,0,3,3,3,1,Training/JAY_YO_BU.wav,SIMILAR,,,,,,,,,,,,,,,,,,,,,
,,,,,,,,,,,,,,,,,1,606212affa13aada679c17b2,2021-07-12_14h07.36.643,Agingstudy_mst,2020.2.10,Win32,60,60e99bd7bc9be7be49ca9171,60ec84b9ba771f73b69248b6,,,,,,,,1,1,2.4376,0,4,4,4,1,Training/FO_YI_LAY.wav,OLD,,,,,,,,,,,,,,,,,,,,,
,,,,,,,,,,,,,,,,TestWords/HA_SI_JAI.wav,,606212affa13aada679c17b2,2021-07-12_14h07.36.643,Agingstudy_mst,2020.2.10,Win32,60,60e99bd7bc9be7be49ca9171,60ec84b9ba771f73b69248b6,,,,,C,,,,,,,,,,,,,space,15.6811,2,1,5.3326,0,0,0,0,1,2,NEW,NEW,,,,,,,,
,,,,,,,,,,,,,,,,TestWords/NO_WA_BAY.wav,,606212affa13aada679c17b2,2021-07-12_14h07.36.643,Agingstudy_mst,2020.2.10,Win32,60,60e99bd7bc9be7be49ca9171,60ec84b9ba771f73b69248b6,,,,,C,,,,,,,,,,,,,,,2,1,1.771,0,1,1,1,1,2,NEW,NEW,,,,,,,,
,,,,,,,,,,,,,,,,TestWords/KO_SU_FAI.wav,,606212affa13aada679c17b2,2021-07-12_14h07.36.643,Agingstudy_mst,2020.2.10,Win32,60,60e99bd7bc9be7be49ca9171,60ec84b9ba771f73b69248b6,,,,,C,,,,,,,,,,,,,,,2,1,1.8214,0,2,2,2,1,2,NEW,NEW,,,,,,,,
,,,,,,,,,,,,,,,,TestWords/TAI_SA_GI.wav,,606212affa13aada679c17b2,2021-07-12_14h07.36.643,Agingstudy_mst,2020.2.10,Win32,60,60e99bd7bc9be7be49ca9171,60ec84b9ba771f73b69248b6,,,,,C,,,,,,,,,,,,,,,2,1,1.2534,0,3,3,3,1,2,NEW,NEW,,,,,,,,
,,,,,,,,,,,,,,,,TestWords/HO_NAY_VA.wav,,606212affa13aada679c17b2,2021-07-12_14h07.36.643,Agingstudy_mst,2020.2.10,Win32,60,60e99bd7bc9be7be49ca9171,60ec84b9ba771f73b69248b6,,,,,C,,,,,,,,,,,,,,,2,1,4.0963,0,4,4,4,1,2,NEW,NEW,,,,,,,,
,,,,,,,,,,,,,,,,TestWords/KAI_LAY_TA.wav,,606212affa13aada679c17b2,2021-07-12_14h07.36.643,Agingstudy_mst,2020.2.10,Win32,60,60e99bd7bc9be7be49ca9171,60ec84b9ba771f73b69248b6,,,,,C,,,,,,,,,,,,,,,2,1,1.3045,0,5,5,5,1,2,NEW,NEW,,,,,,,,
,,,,,,,,,,,,,,,,TestWords/FI_GU_CHA.wav,,606212affa13aada679c17b2,2021-07-12_14h07.36.643,Agingstudy_mst,2020.2.10,Win32,60,60e99bd7bc9be7be49ca9171,60ec84b9ba771f73b69248b6,,,,,C,,,,,,,,,,,,,,,2,1,0.3691,0,6,6,6,1,2,NEW,NEW,,,,,,,,
,,,,,,,,,,,,,,,,TestWords/GI_SA_TAI.wav,,606212affa13aada679c17b2,2021-07-12_14h07.36.643,Agingstudy_mst,2020.2.10,Win32,60,60e99bd7bc9be7be49ca9171,60ec84b9ba771f73b69248b6,,,,,C,,,,,,,,,,,,,,,2,1,0.2698,0,7,7,7,1,2,NEW,SIMILAR,,,,,,,,
,,,,,,,,,,,,,,,,TestWords/LU_HAI_BO.wav,,606212affa13aada679c17b2,2021-07-12_14h07.36.643,Agingstudy_mst,2020.2.10,Win32,60,60e99bd7bc9be7be49ca9171,60ec84b9ba771f73b69248b6,,,,,C,,,,,,,,,,,,,,,2,1,0.3972,0,8,8,8,1,2,NEW,NEW,,,,,,,,
,,,,,,,,,,,,,,,,TestWords/KO_SU_FAI.wav,,606212affa13aada679c17b2,2021-07-12_14h07.36.643,Agingstudy_mst,2020.2.10,Win32,60,60e99bd7bc9be7be49ca9171,60ec84b9ba771f73b69248b6,,,,,C,,,,,,,,,,,,,,,1,1,0.5088,0,9,9,9,1,1,OLD,OLD,,,,,,,,
,,,,,,,,,,,,,,,,TestWords/DAI_RU_CHI.wav,,606212affa13aada679c17b2,2021-07-12_14h07.36.643,Agingstudy_mst,2020.2.10,Win32,60,60e99bd7bc9be7be49ca9171,60ec84b9ba771f73b69248b6,,,,,C,,,,,,,,,,,,,,,2,1,0.6513,0,10,10,10,1,2,NEW,NEW,,,,,,,,
,,,,,,,,,,,,,,,,TestWords/CHU_LA_PAY.wav,,606212affa13aada679c17b2,2021-07-12_14h07.36.643,Agingstudy_mst,2020.2.10,Win32,60,60e99bd7bc9be7be49ca9171,60ec84b9ba771f73b69248b6,,,,,C,,,,,,,,,,,,,,,2,1,2.9431,0,11,11,11,1,2,NEW,NEW,,,,,,,,
,,,,,,,,,,,,,,,,TestWords/KAI_LAY_TA.wav,,606212affa13aada679c17b2,2021-07-12_14h07.36.643,Agingstudy_mst,2020.2.10,Win32,60,60e99bd7bc9be7be49ca9171,60ec84b9ba771f73b69248b6,,,,,C,,,,,,,,,,,,,,,1,1,0.8014,0,12,12,12,1,1,OLD,OLD,,,,,,,,
,,,,,,,,,,,,,,,,TestWords/GI_TAI_SA.wav,,606212affa13aada679c17b2,2021-07-12_14h07.36.643,Agingstudy_mst,2020.2.10,Win32,60,60e99bd7bc9be7be49ca9171,60ec84b9ba771f73b69248b6,,,,,C,,,,,,,,,,,,,,,2,1,3.0087,0,13,13,13,1,2,NEW,SIMILAR,,,,,,,,
,,,,,,,,,,,,,,,,TestWords/DAY_PU_MO.wav,,606212affa13aada679c17b2,2021-07-12_14h07.36.643,Agingstudy_mst,2020.2.10,Win32,60,60e99bd7bc9be7be49ca9171,60ec84b9ba771f73b69248b6,,,,,C,,,,,,,,,,,,,,,2,1,5.8864,0,14,14,14,1,2,NEW,NEW,,,,,,,,
,,,,,,,,,,,,,,,,TestWords/KO_SU_FAI.wav,,606212affa13aada679c17b2,2021-07-12_14h07.36.643,Agingstudy_mst,2020.2.10,Win32,60,60e99bd7bc9be7be49ca9171,60ec84b9ba771f73b69248b6,,,,,C,,,,,,,,,,,,,,,1,1,0.6526,0,15,15,15,1,1,OLD,OLD,,,,,,,,
,,,,,,,,,,,,,,,,TestWords/SA_TAI_GI.wav,,606212affa13aada679c17b2,2021-07-12_14h07.36.643,Agingstudy_mst,2020.2.10,Win32,60,60e99bd7bc9be7be49ca9171,60ec84b9ba771f73b69248b6,,,,,C,,,,,,,,,,,,,,,2,1,0.7529,0,16,16,16,1,2,NEW,SIMILAR,,,,,,,,
,,,,,,,,,,,,,,,,TestWords/RAY_PA_TI.wav,,606212affa13aada679c17b2,2021-07-12_14h07.36.643,Agingstudy_mst,2020.2.10,Win32,60,60e99bd7bc9be7be49ca9171,60ec84b9ba771f73b69248b6,,,,,C,,,,,,,,,,,,,,,2,1,0.5188,0,17,17,17,1,2,NEW,NEW,,,,,,,,
,,,,,,,,,,,,,,,,TestWords/KAI_LAY_TA.wav,,606212affa13aada679c17b2,2021-07-12_14h07.36.643,Agingstudy_mst,2020.2.10,Win32,60,60e99bd7bc9be7be49ca9171,60ec84b9ba771f73b69248b6,,,,,C,,,,,,,,,,,,,,,1,1,1.0705,0,18,18,18,1,1,OLD,OLD,,,,,,,,
,,,,,,,,,,,,,,,,TestWords/DAY_MO_PU.wav,,606212affa13aada679c17b2,2021-07-12_14h07.36.643,Agingstudy_mst,2020.2.10,Win32,60,60e99bd7bc9be7be49ca9171,60ec84b9ba771f73b69248b6,,,,,C,,,,,,,,,,,,,,,2,1,2.8749,0,19,19,19,1,2,NEW,SIMILAR,,,,,,,,
,,,,,,,,,,,,,,,,TestWords/DAI_RU_CHI.wav,,606212affa13aada679c17b2,2021-07-12_14h07.36.643,Agingstudy_mst,2020.2.10,Win32,60,60e99bd7bc9be7be49ca9171,60ec84b9ba771f73b69248b6,,,,,C,,,,,,,,,,,,,,,2,0,5.0308,0,20,20,20,1,1,OLD,OLD,,,,,,,,
,,,,,,,,,,,,,,,,TestWords/SA_GI_TAI.wav,,606212affa13aada679c17b2,2021-07-12_14h07.36.643,Agingstudy_mst,2020.2.10,Win32,60,60e99bd7bc9be7be49ca9171,60ec84b9ba771f73b69248b6,,,,,C,,,,,,,,,,,,,,,1,0,0.5971,0,21,21,21,1,2,NEW,SIMILAR,,,,,,,,
,,,,,,,,,,,,,,,,TestWords/KO_SU_FAI.wav,,606212affa13aada679c17b2,2021-07-12_14h07.36.643,Agingstudy_mst,2020.2.10,Win32,60,60e99bd7bc9be7be49ca9171,60ec84b9ba771f73b69248b6,,,,,C,,,,,,,,,,,,,,,1,1,0.6533,0,22,22,22,1,1,OLD,OLD,,,,,,,,
,,,,,,,,,,,,,,,,TestWords/KAI_LAY_TA.wav,,606212affa13aada679c17b2,2021-07-12_14h07.36.643,Agingstudy_mst,2020.2.10,Win32,60,60e99bd7bc9be7be49ca9171,60ec84b9ba771f73b69248b6,,,,,C,,,,,,,,,,,,,,,1,1,0.8701,0,23,23,23,1,1,OLD,OLD,,,,,,,,
,,,,,,,,,,,,,,,,TestWords/RAY_PA_TI.wav,,606212affa13aada679c17b2,2021-07-12_14h07.36.643,Agingstudy_mst,2020.2.10,Win32,60,60e99bd7bc9be7be49ca9171,60ec84b9ba771f73b69248b6,,,,,C,,,,,,,,,,,,,,,1,1,0.5185,0,24,24,24,1,1,OLD,OLD,,,,,,,,
,,,,,,,,,,,,,,,,TestWords/MO_DAY_PU.wav,,606212affa13aada679c17b2,2021-07-12_14h07.36.643,Agingstudy_mst,2020.2.10,Win32,60,60e99bd7bc9be7be49ca9171,60ec84b9ba771f73b69248b6,,,,,C,,,,,,,,,,,,,,,2,1,3.1101,0,25,25,25,1,2,NEW,SIMILAR,,,,,,,,
,,,,,,,,,,,,,,,,TestWords/DAI_RU_CHI.wav,,606212affa13aada679c17b2,2021-07-12_14h07.36.643,Agingstudy_mst,2020.2.10,Win32,60,60e99bd7bc9be7be49ca9171,60ec84b9ba771f73b69248b6,,,,,C,,,,,,,,,,,,,,,1,1,1.0017,0,26,26,26,1,1,OLD,OLD,,,,,,,,
,,,,,,,,,,,,,,,,TestWords/TAI_GI_SA.wav,,606212affa13aada679c17b2,2021-07-12_14h07.36.643,Agingstudy_mst,2020.2.10,Win32,60,60e99bd7bc9be7be49ca9171,60ec84b9ba771f73b69248b6,,,,,C,,,,,,,,,,,,,,,1,0,1.5218,0,27,27,27,1,2,NEW,SIMILAR,,,,,,,,
,,,,,,,,,,,,,,,,TestWords/GA_MU_ZI.wav,,606212affa13aada679c17b2,2021-07-12_14h07.36.643,Agingstudy_mst,2020.2.10,Win32,60,60e99bd7bc9be7be49ca9171,60ec84b9ba771f73b69248b6,,,,,C,,,,,,,,,,,,,,,2,1,0.6362,0,28,28,28,1,2,NEW,NEW,,,,,,,,
,,,,,,,,,,,,,,,,TestWords/BA_KAY_LI.wav,,606212affa13aada679c17b2,2021-07-12_14h07.36.643,Agingstudy_mst,2020.2.10,Win32,60,60e99bd7bc9be7be49ca9171,60ec84b9ba771f73b69248b6,,,,,C,,,,,,,,,,,,,,,2,1,0.6091,0,29,29,29,1,2,NEW,NEW,,,,,,,,
,,,,,,,,,,,,,,,,TestWords/RAY_PA_TI.wav,,606212affa13aada679c17b2,2021-07-12_14h07.36.643,Agingstudy_mst,2020.2.10,Win32,60,60e99bd7bc9be7be49ca9171,60ec84b9ba771f73b69248b6,,,,,C,,,,,,,,,,,,,,,2,0,3.3024,0,30,30,30,1,1,OLD,OLD,,,,,,,,
,,,,,,,,,,,,,,,,TestWords/KO_SU_FAI.wav,,606212affa13aada679c17b2,2021-07-12_14h07.36.643,Agingstudy_mst,2020.2.10,Win32,60,60e99bd7bc9be7be49ca9171,60ec84b9ba771f73b69248b6,,,,,C,,,,,,,,,,,,,,,1,1,1.5385,0,31,31,31,1,1,OLD,OLD,,,,,,,,
,,,,,,,,,,,,,,,,TestWords/PU_DAY_MO.wav,,606212affa13aada679c17b2,2021-07-12_14h07.36.643,Agingstudy_mst,2020.2.10,Win32,60,60e99bd7bc9be7be49ca9171,60ec84b9ba771f73b69248b6,,,,,C,,,,,,,,,,,,,,,1,0,2.7426,0,32,32,32,1,2,NEW,SIMILAR,,,,,,,,
,,,,,,,,,,,,,,,,TestWords/KAI_LAY_TA.wav,,606212affa13aada679c17b2,2021-07-12_14h07.36.643,Agingstudy_mst,2020.2.10,Win32,60,60e99bd7bc9be7be49ca9171,60ec84b9ba771f73b69248b6,,,,,C,,,,,,,,,,,,,,,1,1,0.7143,0,33,33,33,1,1,OLD,OLD,,,,,,,,
,,,,,,,,,,,,,,,,TestWords/DAI_RU_CHI.wav,,606212affa13aada679c17b2,2021-07-12_14h07.36.643,Agingstudy_mst,2020.2.10,Win32,60,60e99bd7bc9be7be49ca9171,60ec84b9ba771f73b69248b6,,,,,C,,,,,,,,,,,,,,,1,1,0.6813,0,34,34,34,1,1,OLD,OLD,,,,,,,,
,,,,,,,,,,,,,,,,TestWords/KAY_LI_BA.wav,,606212affa13aada679c17b2,2021-07-12_14h07.36.643,Agingstudy_mst,2020.2.10,Win32,60,60e99bd7bc9be7be49ca9171,60ec84b9ba771f73b69248b6,,,,,C,,,,,,,,,,,,,,,1,0,1.0608,0,35,35,35,1,2,NEW,SIMILAR,,,,,,,,
,,,,,,,,,,,,,,,,TestWords/GA_MU_ZI.wav,,606212affa13aada679c17b2,2021-07-12_14h07.36.643,Agingstudy_mst,2020.2.10,Win32,60,60e99bd7bc9be7be49ca9171,60ec84b9ba771f73b69248b6,,,,,C,,,,,,,,,,,,,,,2,0,3.0101,0,36,36,36,1,1,OLD,OLD,,,,,,,,
,,,,,,,,,,,,,,,,TestWords/RAY_PA_TI.wav,,606212affa13aada679c17b2,2021-07-12_14h07.36.643,Agingstudy_mst,2020.2.10,Win32,60,60e99bd7bc9be7be49ca9171,60ec84b9ba771f73b69248b6,,,,,C,,,,,,,,,,,,,,,2,0,3.9463,0,37,37,37,1,1,OLD,OLD,,,,,,,,
,,,,,,,,,,,,,,,,TestWords/PU_MO_DAY.wav,,606212affa13aada679c17b2,2021-07-12_14h07.36.643,Agingstudy_mst,2020.2.10,Win32,60,60e99bd7bc9be7be49ca9171,60ec84b9ba771f73b69248b6,,,,,C,,,,,,,,,,,,,,,1,0,2.3409,0,38,38,38,1,2,NEW,SIMILAR,,,,,,,,
,,,,,,,,,,,,,,,,TestWords/VAI_HO_LA.wav,,606212affa13aada679c17b2,2021-07-12_14h07.36.643,Agingstudy_mst,2020.2.10,Win32,60,60e99bd7bc9be7be49ca9171,60ec84b9ba771f73b69248b6,,,,,C,,,,,,,,,,,,,,,2,1,2.1223,0,39,39,39,1,2,NEW,NEW,,,,,,,,
,,,,,,,,,,,,,,,,TestWords/KAI_LAY_TA.wav,,606212affa13aada679c17b2,2021-07-12_14h07.36.643,Agingstudy_mst,2020.2.10,Win32,60,60e99bd7bc9be7be49ca9171,60ec84b9ba771f73b69248b6,,,,,C,,,,,,,,,,,,,,,1,1,1.3381,0,40,40,40,1,1,OLD,OLD,,,,,,,,
,,,,,,,,,,,,,,,,TestWords/KO_SU_FAI.wav,,606212affa13aada679c17b2,2021-07-12_14h07.36.643,Agingstudy_mst,2020.2.10,Win32,60,60e99bd7bc9be7be49ca9171,60ec84b9ba771f73b69248b6,,,,,C,,,,,,,,,,,,,,,1,1,0.2011,0,41,41,41,1,1,OLD,OLD,,,,,,,,
,,,,,,,,,,,,,,,,TestWords/DAI_RU_CHI.wav,,606212affa13aada679c17b2,2021-07-12_14h07.36.643,Agingstudy_mst,2020.2.10,Win32,60,60e99bd7bc9be7be49ca9171,60ec84b9ba771f73b69248b6,,,,,C,,,,,,,,,,,,,,,1,1,0.6693,0,42,42,42,1,1,OLD,OLD,,,,,,,,
,,,,,,,,,,,,,,,,TestWords/WAI_VU_NA.wav,,606212affa13aada679c17b2,2021-07-12_14h07.36.643,Agingstudy_mst,2020.2.10,Win32,60,60e99bd7bc9be7be49ca9171,60ec84b9ba771f73b69248b6,,,,,C,,,,,,,,,,,,,,,2,1,1.9399,0,43,43,43,1,2,NEW,NEW,,,,,,,,
,,,,,,,,,,,,,,,,TestWords/GA_MU_ZI.wav,,606212affa13aada679c17b2,2021-07-12_14h07.36.643,Agingstudy_mst,2020.2.10,Win32,60,60e99bd7bc9be7be49ca9171,60ec84b9ba771f73b69248b6,,,,,C,,,,,,,,,,,,,,,1,1,0.1685,0,44,44,44,1,1,OLD,OLD,,,,,,,,
,,,,,,,,,,,,,,,,TestWords/KAY_BA_LI.wav,,606212affa13aada679c17b2,2021-07-12_14h07.36.643,Agingstudy_mst,2020.2.10,Win32,60,60e99bd7bc9be7be49ca9171,60ec84b9ba771f73b69248b6,,,,,C,,,,,,,,,,,,,,,1,0,0.4841,0,45,45,45,1,2,NEW,SIMILAR,,,,,,,,
,,,,,,,,,,,,,,,,TestWords/MO_PU_DAY.wav,,606212affa13aada679c17b2,2021-07-12_14h07.36.643,Agingstudy_mst,2020.2.10,Win32,60,60e99bd7bc9be7be49ca9171,60ec84b9ba771f73b69248b6,,,,,C,,,,,,,,,,,,,,,2,1,0.611,0,46,46,46,1,2,NEW,SIMILAR,,,,,,,,
,,,,,,,,,,,,,,,,TestWords/RAY_PA_TI.wav,,606212affa13aada679c17b2,2021-07-12_14h07.36.643,Agingstudy_mst,2020.2.10,Win32,60,60e99bd7bc9be7be49ca9171,60ec84b9ba771f73b69248b6,,,,,C,,,,,,,,,,,,,,,1,1,0.5858,0,47,47,47,1,1,OLD,OLD,,,,,,,,
,,,,,,,,,,,,,,,,TestWords/KAI_LAY_TA.wav,,606212affa13aada679c17b2,2021-07-12_14h07.36.643,Agingstudy_mst,2020.2.10,Win32,60,60e99bd7bc9be7be49ca9171,60ec84b9ba771f73b69248b6,,,,,C,,,,,,,,,,,,,,,1,1,0.2346,0,48,48,48,1,1,OLD,OLD,,,,,,,,
,,,,,,,,,,,,,,,,TestWords/WAI_NA_VU.wav,,606212affa13aada679c17b2,2021-07-12_14h07.36.643,Agingstudy_mst,2020.2.10,Win32,60,60e99bd7bc9be7be49ca9171,60ec84b9ba771f73b69248b6,,,,,C,,,,,,,,,,,,,,,2,1,2.642,0,49,49,49,1,2,NEW,SIMILAR,,,,,,,,
,,,,,,,,,,,,,,,,TestWords/KO_SU_FAI.wav,,606212affa13aada679c17b2,2021-07-12_14h07.36.643,Agingstudy_mst,2020.2.10,Win32,60,60e99bd7bc9be7be49ca9171,60ec84b9ba771f73b69248b6,,,,,C,,,,,,,,,,,,,,,1,1,0.133,0,50,50,50,1,1,OLD,OLD,,,,,,,,
,,,,,,,,,,,,,,,,TestWords/GA_MU_ZI.wav,,606212affa13aada679c17b2,2021-07-12_14h07.36.643,Agingstudy_mst,2020.2.10,Win32,60,60e99bd7bc9be7be49ca9171,60ec84b9ba771f73b69248b6,,,,,C,,,,,,,,,,,,,,,1,1,0.6681,0,51,51,51,1,1,OLD,OLD,,,,,,,,
,,,,,,,,,,,,,,,,TestWords/NU_CHAY_SO.wav,,606212affa13aada679c17b2,2021-07-12_14h07.36.643,Agingstudy_mst,2020.2.10,Win32,60,60e99bd7bc9be7be49ca9171,60ec84b9ba771f73b69248b6,,,,,C,,,,,,,,,,,,,,,2,1,0.3098,0,52,52,52,1,2,NEW,NEW,,,,,,,,
,,,,,,,,,,,,,,,,TestWords/DAI_RU_CHI.wav,,606212affa13aada679c17b2,2021-07-12_14h07.36.643,Agingstudy_mst,2020.2.10,Win32,60,60e99bd7bc9be7be49ca9171,60ec84b9ba771f73b69248b6,,,,,C,,,,,,,,,,,,,,,1,1,0.3926,0,53,53,53,1,1,OLD,OLD,,,,,,,,
,,,,,,,,,,,,,,,,TestWords/VU_NA_WAI.wav,,606212affa13aada679c17b2,2021-07-12_14h07.36.643,Agingstudy_mst,2020.2.10,Win32,60,60e99bd7bc9be7be49ca9171,60ec84b9ba771f73b69248b6,,,,,C,,,,,,,,,,,,,,,1,0,1.4549,0,54,54,54,1,2,NEW,SIMILAR,,,,,,,,
,,,,,,,,,,,,,,,,TestWords/RAY_PA_TI.wav,,606212affa13aada679c17b2,2021-07-12_14h07.36.643,Agingstudy_mst,2020.2.10,Win32,60,60e99bd7bc9be7be49ca9171,60ec84b9ba771f73b69248b6,,,,,C,,,,,,,,,,,,,,,1,1,0.321,0,55,55,55,1,1,OLD,OLD,,,,,,,,
,,,,,,,,,,,,,,,,TestWords/KAI_LAY_TA.wav,,606212affa13aada679c17b2,2021-07-12_14h07.36.643,Agingstudy_mst,2020.2.10,Win32,60,60e99bd7bc9be7be49ca9171,60ec84b9ba771f73b69248b6,,,,,C,,,,,,,,,,,,,,,1,1,0.6294,0,56,56,56,1,1,OLD,OLD,,,,,,,,
,,,,,,,,,,,,,,,,TestWords/LI_BA_KAY.wav,,606212affa13aada679c17b2,2021-07-12_14h07.36.643,Agingstudy_mst,2020.2.10,Win32,60,60e99bd7bc9be7be49ca9171,60ec84b9ba771f73b69248b6,,,,,C,,,,,,,,,,,,,,,1,0,1.5713,0,57,57,57,1,2,NEW,SIMILAR,,,,,,,,
,,,,,,,,,,,,,,,,TestWords/GA_MU_ZI.wav,,606212affa13aada679c17b2,2021-07-12_14h07.36.643,Agingstudy_mst,2020.2.10,Win32,60,60e99bd7bc9be7be49ca9171,60ec84b9ba771f73b69248b6,,,,,C,,,,,,,,,,,,,,,2,0,1.8488,0,58,58,58,1,1,OLD,OLD,,,,,,,,
,,,,,,,,,,,,,,,,TestWords/WAI_RO_JU.wav,,606212affa13aada679c17b2,2021-07-12_14h07.36.643,Agingstudy_mst,2020.2.10,Win32,60,60e99bd7bc9be7be49ca9171,60ec84b9ba771f73b69248b6,,,,,C,,,,,,,,,,,,,,,2,1,0.9095,0,59,59,59,1,2,NEW,NEW,,,,,,,,
,,,,,,,,,,,,,,,,TestWords/KO_SU_FAI.wav,,606212affa13aada679c17b2,2021-07-12_14h07.36.643,Agingstudy_mst,2020.2.10,Win32,60,60e99bd7bc9be7be49ca9171,60ec84b9ba771f73b69248b6,,,,,C,,,,,,,,,,,,,,,1,1,0.7723,0,60,60,60,1,1,OLD,OLD,,,,,,,,
,,,,,,,,,,,,,,,,TestWords/DAI_RU_CHI.wav,,606212affa13aada679c17b2,2021-07-12_14h07.36.643,Agingstudy_mst,2020.2.10,Win32,60,60e99bd7bc9be7be49ca9171,60ec84b9ba771f73b69248b6,,,,,C,,,,,,,,,,,,,,,1,1,0.2074,0,61,61,61,1,1,OLD,OLD,,,,,,,,
,,,,,,,,,,,,,,,,TestWords/VU_WAI_NA.wav,,606212affa13aada679c17b2,2021-07-12_14h07.36.643,Agingstudy_mst,2020.2.10,Win32,60,60e99bd7bc9be7be49ca9171,60ec84b9ba771f73b69248b6,,,,,C,,,,,,,,,,,,,,,2,1,1.6267,0,62,62,62,1,2,NEW,SIMILAR,,,,,,,,
,,,,,,,,,,,,,,,,TestWords/RAY_PA_TI.wav,,606212affa13aada679c17b2,2021-07-12_14h07.36.643,Agingstudy_mst,2020.2.10,Win32,60,60e99bd7bc9be7be49ca9171,60ec84b9ba771f73b69248b6,,,,,C,,,,,,,,,,,,,,,1,1,0.6695,0,63,63,63,1,1,OLD,OLD,,,,,,,,
,,,,,,,,,,,,,,,,TestWords/KAI_LAY_TA.wav,,606212affa13aada679c17b2,2021-07-12_14h07.36.643,Agingstudy_mst,2020.2.10,Win32,60,60e99bd7bc9be7be49ca9171,60ec84b9ba771f73b69248b6,,,,,C,,,,,,,,,,,,,,,2,0,0.2178,0,64,64,64,1,1,OLD,OLD,,,,,,,,
,,,,,,,,,,,,,,,,TestWords/GA_MU_ZI.wav,,606212affa13aada679c17b2,2021-07-12_14h07.36.643,Agingstudy_mst,2020.2.10,Win32,60,60e99bd7bc9be7be49ca9171,60ec84b9ba771f73b69248b6,,,,,C,,,,,,,,,,,,,,,2,0,2.5751,0,65,65,65,1,1,OLD,OLD,,,,,,,,
,,,,,,,,,,,,,,,,TestWords/BA_LI_KAY.wav,,606212affa13aada679c17b2,2021-07-12_14h07.36.643,Agingstudy_mst,2020.2.10,Win32,60,60e99bd7bc9be7be49ca9171,60ec84b9ba771f73b69248b6,,,,,C,,,,,,,,,,,,,,,2,1,0.0648,0,66,66,66,1,2,NEW,SIMILAR,,,,,,,,
,,,,,,,,,,,,,,,,TestWords/NA_VU_WAI.wav,,606212affa13aada679c17b2,2021-07-12_14h07.36.643,Agingstudy_mst,2020.2.10,Win32,60,60e99bd7bc9be7be49ca9171,60ec84b9ba771f73b69248b6,,,,,C,,,,,,,,,,,,,,,2,1,1.599,0,67,67,67,1,2,NEW,SIMILAR,,,,,,,,
,,,,,,,,,,,,,,,,TestWords/KO_SU_FAI.wav,,606212affa13aada679c17b2,2021-07-12_14h07.36.643,Agingstudy_mst,2020.2.10,Win32,60,60e99bd7bc9be7be49ca9171,60ec84b9ba771f73b69248b6,,,,,C,,,,,,,,,,,,,,,1,1,0.3373,0,68,68,68,1,1,OLD,OLD,,,,,,,,
,,,,,,,,,,,,,,,,TestWords/RAI_ZO_FU.wav,,606212affa13aada679c17b2,2021-07-12_14h07.36.643,Agingstudy_mst,2020.2.10,Win32,60,60e99bd7bc9be7be49ca9171,60ec84b9ba771f73b69248b6,,,,,C,,,,,,,,,,,,,,,2,1,1.1992,0,69,69,69,1,2,NEW,NEW,,,,,,,,
,,,,,,,,,,,,,,,,TestWords/DAI_RU_CHI.wav,,606212affa13aada679c17b2,2021-07-12_14h07.36.643,Agingstudy_mst,2020.2.10,Win32,60,60e99bd7bc9be7be49ca9171,60ec84b9ba771f73b69248b6,,,,,C,,,,,,,,,,,,,,,1,1,0.207,0,70,70,70,1,1,OLD,OLD,,,,,,,,
,,,,,,,,,,,,,,,,TestWords/RAY_PA_TI.wav,,606212affa13aada679c17b2,2021-07-12_14h07.36.643,Agingstudy_mst,2020.2.10,Win32,60,60e99bd7bc9be7be49ca9171,60ec84b9ba771f73b69248b6,,,,,C,,,,,,,,,,,,,,,1,1,0.2294,0,71,71,71,1,1,OLD,OLD,,,,,,,,
,,,,,,,,,,,,,,,,TestWords/LI_KAY_BA.wav,,606212affa13aada679c17b2,2021-07-12_14h07.36.643,Agingstudy_mst,2020.2.10,Win32,60,60e99bd7bc9be7be49ca9171,60ec84b9ba771f73b69248b6,,,,,C,,,,,,,,,,,,,,,1,0,0.7194,0,72,72,72,1,2,NEW,SIMILAR,,,,,,,,
,,,,,,,,,,,,,,,,TestWords/KAI_LAY_TA.wav,,606212affa13aada679c17b2,2021-07-12_14h07.36.643,Agingstudy_mst,2020.2.10,Win32,60,60e99bd7bc9be7be49ca9171,60ec84b9ba771f73b69248b6,,,,,C,,,,,,,,,,,,,,,1,1,3.3681,0,73,73,73,1,1,OLD,OLD,,,,,,,,
,,,,,,,,,,,,,,,,TestWords/GA_MU_ZI.wav,,606212affa13aada679c17b2,2021-07-12_14h07.36.643,Agingstudy_mst,2020.2.10,Win32,60,60e99bd7bc9be7be49ca9171,60ec84b9ba771f73b69248b6,,,,,C,,,,,,,,,,,,,,,1,1,0.1677,0,74,74,74,1,1,OLD,OLD,,,,,,,,
,,,,,,,,,,,,,,,,TestWords/NA_WAI_VU.wav,,606212affa13aada679c17b2,2021-07-12_14h07.36.643,Agingstudy_mst,2020.2.10,Win32,60,60e99bd7bc9be7be49ca9171,60ec84b9ba771f73b69248b6,,,,,C,,,,,,,,,,,,,,,2,1,1.2478,0,75,75,75,1,2,NEW,SIMILAR,,,,,,,,
,,,,,,,,,,,,,,,,TestWords/KO_SU_FAI.wav,,606212affa13aada679c17b2,2021-07-12_14h07.36.643,Agingstudy_mst,2020.2.10,Win32,60,60e99bd7bc9be7be49ca9171,60ec84b9ba771f73b69248b6,,,,,C,,,,,,,,,,,,,,,1,1,0.1355,0,76,76,76,1,1,OLD,OLD,,,,,,,,
,,,,,,,,,,,,,,,,TestWords/ZO_RAI_FU.wav,,606212affa13aada679c17b2,2021-07-12_14h07.36.643,Agingstudy_mst,2020.2.10,Win32,60,60e99bd7bc9be7be49ca9171,60ec84b9ba771f73b69248b6,,,,,C,,,,,,,,,,,,,,,2,1,2.763,0,77,77,77,1,2,NEW,SIMILAR,,,,,,,,
,,,,,,,,,,,,,,,,TestWords/RAY_PA_TI.wav,,606212affa13aada679c17b2,2021-07-12_14h07.36.643,Agingstudy_mst,2020.2.10,Win32,60,60e99bd7bc9be7be49ca9171,60ec84b9ba771f73b69248b6,,,,,C,,,,,,,,,,,,,,,1,1,0.1761,0,78,78,78,1,1,OLD,OLD,,,,,,,,
,,,,,,,,,,,,,,,,TestWords/KAI_LAY_TA.wav,,606212affa13aada679c17b2,2021-07-12_14h07.36.643,Agingstudy_mst,2020.2.10,Win32,60,60e99bd7bc9be7be49ca9171,60ec84b9ba771f73b69248b6,,,,,C,,,,,,,,,,,,,,,1,1,0.4236,0,79,79,79,1,1,OLD,OLD,,,,,,,,
,,,,,,,,,,,,,,,,TestWords/GA_MU_ZI.wav,,606212affa13aada679c17b2,2021-07-12_14h07.36.643,Agingstudy_mst,2020.2.10,Win32,60,60e99bd7bc9be7be49ca9171,60ec84b9ba771f73b69248b6,,,,,C,,,,,,,,,,,,,,,2,0,1.4562,0,80,80,80,1,1,OLD,OLD,,,,,,,,
,,,,,,,,,,,,,,,,TestWords/DA_CHU_VAI.wav,,606212affa13aada679c17b2,2021-07-12_14h07.36.643,Agingstudy_mst,2020.2.10,Win32,60,60e99bd7bc9be7be49ca9171,60ec84b9ba771f73b69248b6,,,,,C,,,,,,,,,,,,,,,2,1,1.1294,0,81,81,81,1,2,NEW,NEW,,,,,,,,
,,,,,,,,,,,,,,,,TestWords/DAI_RU_CHI.wav,,606212affa13aada679c17b2,2021-07-12_14h07.36.643,Agingstudy_mst,2020.2.10,Win32,60,60e99bd7bc9be7be49ca9171,60ec84b9ba771f73b69248b6,,,,,C,,,,,,,,,,,,,,,1,1,0.1557,0,82,82,82,1,1,OLD,OLD,,,,,,,,
,,,,,,,,,,,,,,,,TestWords/FU_RAI_ZO.wav,,606212affa13aada679c17b2,2021-07-12_14h07.36.643,Agingstudy_mst,2020.2.10,Win32,60,60e99bd7bc9be7be49ca9171,60ec84b9ba771f73b69248b6,,,,,C,,,,,,,,,,,,,,,2,1,0.4194,0,83,83,83,1,2,NEW,SIMILAR,,,,,,,,
,,,,,,,,,,,,,,,,TestWords/KO_SU_FAI.wav,,606212affa13aada679c17b2,2021-07-12_14h07.36.643,Agingstudy_mst,2020.2.10,Win32,60,60e99bd7bc9be7be49ca9171,60ec84b9ba771f73b69248b6,,,,,C,,,,,,,,,,,,,,,2,0,2.6017,0,84,84,84,1,1,OLD,OLD,,,,,,,,
,,,,,,,,,,,,,,,,TestWords/RAY_PA_TI.wav,,606212affa13aada679c17b2,2021-07-12_14h07.36.643,Agingstudy_mst,2020.2.10,Win32,60,60e99bd7bc9be7be49ca9171,60ec84b9ba771f73b69248b6,,,,,C,,,,,,,,,,,,,,,1,1,0.1045,0,85,85,85,1,1,OLD,OLD,,,,,,,,
,,,,,,,,,,,,,,,,TestWords/DAI_RU_CHI.wav,,606212affa13aada679c17b2,2021-07-12_14h07.36.643,Agingstudy_mst,2020.2.10,Win32,60,60e99bd7bc9be7be49ca9171,60ec84b9ba771f73b69248b6,,,,,C,,,,,,,,,,,,,,,1,1,0.1525,0,86,86,86,1,1,OLD,OLD,,,,,,,,
,,,,,,,,,,,,,,,,TestWords/PAI_LU_WA.wav,,606212affa13aada679c17b2,2021-07-12_14h07.36.643,Agingstudy_mst,2020.2.10,Win32,60,60e99bd7bc9be7be49ca9171,60ec84b9ba771f73b69248b6,,,,,C,,,,,,,,,,,,,,,2,1,0.3657,0,87,87,87,1,2,NEW,NEW,,,,,,,,
,,,,,,,,,,,,,,,,TestWords/GA_MU_ZI.wav,,606212affa13aada679c17b2,2021-07-12_14h07.36.643,Agingstudy_mst,2020.2.10,Win32,60,60e99bd7bc9be7be49ca9171,60ec84b9ba771f73b69248b6,,,,,C,,,,,,,,,,,,,,,2,0,2.1286,0,88,88,88,1,1,OLD,OLD,,,,,,,,
,,,,,,,,,,,,,,,,TestWords/FU_ZO_RAI.wav,,606212affa13aada679c17b2,2021-07-12_14h07.36.643,Agingstudy_mst,2020.2.10,Win32,60,60e99bd7bc9be7be49ca9171,60ec84b9ba771f73b69248b6,,,,,C,,,,,,,,,,,,,,,2,1,0.6362,0,89,89,89,1,2,NEW,SIMILAR,,,,,,,,
,,,,,,,,,,,,,,,,TestWords/RAY_PA_TI.wav,,606212affa13aada679c17b2,2021-07-12_14h07.36.643,Agingstudy_mst,2020.2.10,Win32,60,60e99bd7bc9be7be49ca9171,60ec84b9ba771f73b69248b6,,,,,C,,,,,,,,,,,,,,,2,0,5.2164,0,90,90,90,1,1,OLD,OLD,,,,,,,,
,,,,,,,,,,,,,,,,TestWords/DAI_RU_CHI.wav,,606212affa13aada679c17b2,2021-07-12_14h07.36.643,Agingstudy_mst,2020.2.10,Win32,60,60e99bd7bc9be7be49ca9171,60ec84b9ba771f73b69248b6,,,,,C,,,,,,,,,,,,,,,1,1,0.2418,0,91,91,91,1,1,OLD,OLD,,,,,,,,
,,,,,,,,,,,,,,,,TestWords/LA_ZAY_CHAI.wav,,606212affa13aada679c17b2,2021-07-12_14h07.36.643,Agingstudy_mst,2020.2.10,Win32,60,60e99bd7bc9be7be49ca9171,60ec84b9ba771f73b69248b6,,,,,C,,,,,,,,,,,,,,,2,1,0.2777,0,92,92,92,1,2,NEW,NEW,,,,,,,,
,,,,,,,,,,,,,,,,TestWords/GA_MU_ZI.wav,,606212affa13aada679c17b2,2021-07-12_14h07.36.643,Agingstudy_mst,2020.2.10,Win32,60,60e99bd7bc9be7be49ca9171,60ec84b9ba771f73b69248b6,,,,,C,,,,,,,,,,,,,,,2,0,2.1603,0,93,93,93,1,1,OLD,OLD,,,,,,,,
,,,,,,,,,,,,,,,,TestWords/RAI_FU_ZO.wav,,606212affa13aada679c17b2,2021-07-12_14h07.36.643,Agingstudy_mst,2020.2.10,Win32,60,60e99bd7bc9be7be49ca9171,60ec84b9ba771f73b69248b6,,,,,C,,,,,,,,,,,,,,,2,1,0.7772,0,94,94,94,1,2,NEW,SIMILAR,,,,,,,,
,,,,,,,,,,,,,,,,TestWords/GU_CHAI_PI.wav,,606212affa13aada679c17b2,2021-07-12_14h07.36.643,Agingstudy_mst,2020.2.10,Win32,60,60e99bd7bc9be7be49ca9171,60ec84b9ba771f73b69248b6,,,,,C,,,,,,,,,,,,,,,2,1,0.4795,0,95,95,95,1,2,NEW,NEW,,,,,,,,
,,,,,,,,,,,,,,,,TestWords/HI_NAY_VA.wav,,606212affa13aada679c17b2,2021-07-12_14h07.36.643,Agingstudy_mst,2020.2.10,Win32,60,60e99bd7bc9be7be49ca9171,60ec84b9ba771f73b69248b6,,,,,C,,,,,,,,,,,,,,,2,1,0.7248,0,96,96,96,1,2,NEW,NEW,,,,,,,,
,,,,,,,,,,,,,,,,TestWords/GA_MU_ZI.wav,,606212affa13aada679c17b2,2021-07-12_14h07.36.643,Agingstudy_mst,2020.2.10,Win32,60,60e99bd7bc9be7be49ca9171,60ec84b9ba771f73b69248b6,,,,,C,,,,,,,,,,,,,,,1,1,0.4575,0,97,97,97,1,1,OLD,OLD,,,,,,,,
,,,,,,,,,,,,,,,,TestWords/SI_VAI_CHU.wav,,606212affa13aada679c17b2,2021-07-12_14h07.36.643,Agingstudy_mst,2020.2.10,Win32,60,60e99bd7bc9be7be49ca9171,60ec84b9ba771f73b69248b6,,,,,C,,,,,,,,,,,,,,,2,1,0.9895,0,98,98,98,1,2,NEW,NEW,,,,,,,,
,,,,,,,,,,,,,,,,TestWords/ZO_FU_RAI.wav,,606212affa13aada679c17b2,2021-07-12_14h07.36.643,Agingstudy_mst,2020.2.10,Win32,60,60e99bd7bc9be7be49ca9171,60ec84b9ba771f73b69248b6,,,,,C,,,,,,,,,,,,,,,2,1,3.4821,0,99,99,99,1,2,NEW,SIMILAR,,,,,,,,
,,,,,,,,,,,,,,,,,,606212affa13aada679c17b2,2021-07-12_14h07.36.643,Agingstudy_mst,2020.2.10,Win32,60,60e99bd7bc9be7be49ca9171,60ec84b9ba771f73b69248b6,,,,,,,,,,,,,,,,,,,,,,,,,,,,,,,0,0,0,0,1,,,
,,,,,,,,,,,,,,,,,,606212affa13aada679c17b2,2021-07-12_14h07.36.643,Agingstudy_mst,2020.2.10,Win32,60,60e99bd7bc9be7be49ca9171,60ec84b9ba771f73b69248b6,,,,,,,,,,,,,,,,,,,,,,,,,,,,,,,,,,,,return,47.2318,No
