Welcome0Continue.keys,Welcome0Continue.rt,SoundCheckBegin.keys,SoundCheckBegin.rt,SoundCheckEndKey.keys,SoundCheckEndKey.rt,HeadphoneContinueKey.keys,HeadphoneContinueKey.rt,CheckResp.keys,CheckResp.corr,CheckResp.rt,HeadphoneLoop.thisRepN,HeadphoneLoop.thisTrialN,HeadphoneLoop.thisN,HeadphoneLoop.thisIndex,HeadphoneLoop.ran,File,Correct,participant,date,expName,psychopyVersion,OS,frameRate,ContinueKey8.keys,ContinueKey8.rt,MSTWelcomeContKey.keys,MSTWelcomeContKey.rt,Condition,MSTTrainIntroKey.keys,MSTTrainIntroKey.rt,MSTTrainKeys.keys,MSTTrainKeys.corr,MSTTrainKeys.rt,MSTTrainLoop.thisRepN,MSTTrainLoop.thisTrialN,MSTTrainLoop.thisN,MSTTrainLoop.thisIndex,MSTTrainLoop.ran,SoundFile,Type,MSTTestBeginKey.keys,MSTTestBeginKey.rt,MST_resp.keys,MST_resp.corr,MST_resp.rt,MSTPlayLoop.thisRepN,MSTPlayLoop.thisTrialN,MSTPlayLoop.thisN,MSTPlayLoop.thisIndex,MSTPlayLoop.ran,WordCorrect,Correct_type,WordType,MSTLoop.thisRepN,MSTLoop.thisTrialN,MSTLoop.thisN,MSTLoop.thisIndex,MSTLoop.ran,EndAllKey.keys,EndAllKey.rt,FeedbackResp.text
space,6.049,space,3.545,space,3.751,space,21.571,2,1,2.14,0,0,0,2,1,Headphone/t2_1.wav,2,578bb26f6cc44500010448c8,2021-07-14_07h11.37.627,Agingstudy,2020.2.10,MacIntel,60,,,,,,,,,,,,,,,,,,,,,,,,,,,,,,,,,,,,,,
,,,,,,,,1,1,0.452,0,1,1,0,1,Headphone/t1_1.wav,1,578bb26f6cc44500010448c8,2021-07-14_07h11.37.627,Agingstudy,2020.2.10,MacIntel,60,,,,,,,,,,,,,,,,,,,,,,,,,,,,,,,,,,,,,,
,,,,,,,,2,1,0.385,0,2,2,3,1,Headphone/t2_2.wav,2,578bb26f6cc44500010448c8,2021-07-14_07h11.37.627,Agingstudy,2020.2.10,MacIntel,60,,,,,,,,,,,,,,,,,,,,,,,,,,,,,,,,,,,,,,
,,,,,,,,1,1,0.472,0,3,3,1,1,Headphone/t1_2.wav,1,578bb26f6cc44500010448c8,2021-07-14_07h11.37.627,Agingstudy,2020.2.10,MacIntel,60,,,,,,,,,,,,,,,,,,,,,,,,,,,,,,,,,,,,,,
,,,,,,,,3,1,0.253,0,4,4,5,1,Headphone/t3_2.wav,3,578bb26f6cc44500010448c8,2021-07-14_07h11.37.627,Agingstudy,2020.2.10,MacIntel,60,,,,,,,,,,,,,,,,,,,,,,,,,,,,,,,,,,,,,,
,,,,,,,,3,1,0.282,0,5,5,4,1,Headphone/t3_1.wav,3,578bb26f6cc44500010448c8,2021-07-14_07h11.37.627,Agingstudy,2020.2.10,MacIntel,60,,,,,,,,,,,,,,,,,,,,,,,,,,,,,,,,,,,,,,
,,,,,,,,,,,,,,,,,2,578bb26f6cc44500010448c8,2021-07-14_07h11.37.627,Agingstudy,2020.2.10,MacIntel,60,space,24.194,space,14.604,1,space,5.815,2,1,3.984,0,0,0,0,1,Training/FO_YI_LAY.wav,NEW,,,,,,,,,,,,,,,,,,,,,
,,,,,,,,,,,,,,,,,1,578bb26f6cc44500010448c8,2021-07-14_07h11.37.627,Agingstudy,2020.2.10,MacIntel,60,,,,,,,,1,1,1.278,0,1,1,1,1,Training/FO_YI_LAY.wav,OLD,,,,,,,,,,,,,,,,,,,,,
,,,,,,,,,,,,,,,,,2,578bb26f6cc44500010448c8,2021-07-14_07h11.37.627,Agingstudy,2020.2.10,MacIntel,60,,,,,,,,2,1,1.658,0,2,2,2,1,Training/YO_BU_JAY.wav,NEW,,,,,,,,,,,,,,,,,,,,,
,,,,,,,,,,,,,,,,,2,578bb26f6cc44500010448c8,2021-07-14_07h11.37.627,Agingstudy,2020.2.10,MacIntel,60,,,,,,,,2,1,0.889,0,3,3,3,1,Training/JAY_YO_BU.wav,SIMILAR,,,,,,,,,,,,,,,,,,,,,
,,,,,,,,,,,,,,,,,1,578bb26f6cc44500010448c8,2021-07-14_07h11.37.627,Agingstudy,2020.2.10,MacIntel,60,,,,,,,,1,1,0.417,0,4,4,4,1,Training/FO_YI_LAY.wav,OLD,,,,,,,,,,,,,,,,,,,,,
,,,,,,,,,,,,,,,,TestWords/HA_SI_JAI.wav,,578bb26f6cc44500010448c8,2021-07-14_07h11.37.627,Agingstudy,2020.2.10,MacIntel,60,,,,,A,,,,,,,,,,,,,space,2.589,1,0,4.832,0,0,0,0,1,2,NEW,NEW,,,,,,,,
,,,,,,,,,,,,,,,,TestWords/KO_SU_FAI.wav,,578bb26f6cc44500010448c8,2021-07-14_07h11.37.627,Agingstudy,2020.2.10,MacIntel,60,,,,,A,,,,,,,,,,,,,,,1,0,0.782,0,1,1,1,1,2,NEW,NEW,,,,,,,,
,,,,,,,,,,,,,,,,TestWords/TAI_GI_SA.wav,,578bb26f6cc44500010448c8,2021-07-14_07h11.37.627,Agingstudy,2020.2.10,MacIntel,60,,,,,A,,,,,,,,,,,,,,,2,1,1.846,0,2,2,2,1,2,NEW,NEW,,,,,,,,
,,,,,,,,,,,,,,,,TestWords/KAI_LAY_TA.wav,,578bb26f6cc44500010448c8,2021-07-14_07h11.37.627,Agingstudy,2020.2.10,MacIntel,60,,,,,A,,,,,,,,,,,,,,,2,1,0.609,0,3,3,3,1,2,NEW,NEW,,,,,,,,
,,,,,,,,,,,,,,,,TestWords/RAY_PA_TI.wav,,578bb26f6cc44500010448c8,2021-07-14_07h11.37.627,Agingstudy,2020.2.10,MacIntel,60,,,,,A,,,,,,,,,,,,,,,2,1,0.318,0,4,4,4,1,2,NEW,NEW,,,,,,,,
,,,,,,,,,,,,,,,,TestWords/KO_SU_FAI.wav,,578bb26f6cc44500010448c8,2021-07-14_07h11.37.627,Agingstudy,2020.2.10,MacIntel,60,,,,,A,,,,,,,,,,,,,,,2,0,0.439,0,5,5,5,1,1,OLD,OLD,,,,,,,,
,,,,,,,,,,,,,,,,TestWords/TAI_SA_GI.wav,,578bb26f6cc44500010448c8,2021-07-14_07h11.37.627,Agingstudy,2020.2.10,MacIntel,60,,,,,A,,,,,,,,,,,,,,,1,0,0.467,0,6,6,6,1,2,NEW,SIMILAR,,,,,,,,
,,,,,,,,,,,,,,,,TestWords/KAI_LAY_TA.wav,,578bb26f6cc44500010448c8,2021-07-14_07h11.37.627,Agingstudy,2020.2.10,MacIntel,60,,,,,A,,,,,,,,,,,,,,,2,0,0.636,0,7,7,7,1,1,OLD,OLD,,,,,,,,
,,,,,,,,,,,,,,,,TestWords/NA_WAI_VU.wav,,578bb26f6cc44500010448c8,2021-07-14_07h11.37.627,Agingstudy,2020.2.10,MacIntel,60,,,,,A,,,,,,,,,,,,,,,2,1,0.565,0,8,8,8,1,2,NEW,NEW,,,,,,,,
,,,,,,,,,,,,,,,,TestWords/KO_SU_FAI.wav,,578bb26f6cc44500010448c8,2021-07-14_07h11.37.627,Agingstudy,2020.2.10,MacIntel,60,,,,,A,,,,,,,,,,,,,,,1,1,0.563,0,9,9,9,1,1,OLD,OLD,,,,,,,,
,,,,,,,,,,,,,,,,TestWords/RAY_PA_TI.wav,,578bb26f6cc44500010448c8,2021-07-14_07h11.37.627,Agingstudy,2020.2.10,MacIntel,60,,,,,A,,,,,,,,,,,,,,,1,1,0.548,0,10,10,10,1,1,OLD,OLD,,,,,,,,
,,,,,,,,,,,,,,,,TestWords/GI_SA_TAI.wav,,578bb26f6cc44500010448c8,2021-07-14_07h11.37.627,Agingstudy,2020.2.10,MacIntel,60,,,,,A,,,,,,,,,,,,,,,2,1,0.33,0,11,11,11,1,2,NEW,SIMILAR,,,,,,,,
,,,,,,,,,,,,,,,,TestWords/WAI_VU_NA.wav,,578bb26f6cc44500010448c8,2021-07-14_07h11.37.627,Agingstudy,2020.2.10,MacIntel,60,,,,,A,,,,,,,,,,,,,,,1,0,0.478,0,12,12,12,1,2,NEW,SIMILAR,,,,,,,,
,,,,,,,,,,,,,,,,TestWords/KAI_LAY_TA.wav,,578bb26f6cc44500010448c8,2021-07-14_07h11.37.627,Agingstudy,2020.2.10,MacIntel,60,,,,,A,,,,,,,,,,,,,,,1,1,0.444,0,13,13,13,1,1,OLD,OLD,,,,,,,,
,,,,,,,,,,,,,,,,TestWords/SI_VAI_CHU.wav,,578bb26f6cc44500010448c8,2021-07-14_07h11.37.627,Agingstudy,2020.2.10,MacIntel,60,,,,,A,,,,,,,,,,,,,,,2,1,0.264,0,14,14,14,1,2,NEW,NEW,,,,,,,,
,,,,,,,,,,,,,,,,TestWords/GI_TAI_SA.wav,,578bb26f6cc44500010448c8,2021-07-14_07h11.37.627,Agingstudy,2020.2.10,MacIntel,60,,,,,A,,,,,,,,,,,,,,,2,1,0.139,0,15,15,15,1,2,NEW,SIMILAR,,,,,,,,
,,,,,,,,,,,,,,,,TestWords/KO_SU_FAI.wav,,578bb26f6cc44500010448c8,2021-07-14_07h11.37.627,Agingstudy,2020.2.10,MacIntel,60,,,,,A,,,,,,,,,,,,,,,2,0,0.482,0,16,16,16,1,1,OLD,OLD,,,,,,,,
,,,,,,,,,,,,,,,,TestWords/DA_CHU_VAI.wav,,578bb26f6cc44500010448c8,2021-07-14_07h11.37.627,Agingstudy,2020.2.10,MacIntel,60,,,,,A,,,,,,,,,,,,,,,1,0,0.296,0,17,17,17,1,2,NEW,NEW,,,,,,,,
,,,,,,,,,,,,,,,,TestWords/RAY_PA_TI.wav,,578bb26f6cc44500010448c8,2021-07-14_07h11.37.627,Agingstudy,2020.2.10,MacIntel,60,,,,,A,,,,,,,,,,,,,,,1,1,0.28,0,18,18,18,1,1,OLD,OLD,,,,,,,,
,,,,,,,,,,,,,,,,TestWords/KAI_LAY_TA.wav,,578bb26f6cc44500010448c8,2021-07-14_07h11.37.627,Agingstudy,2020.2.10,MacIntel,60,,,,,A,,,,,,,,,,,,,,,2,0,0.448,0,19,19,19,1,1,OLD,OLD,,,,,,,,
,,,,,,,,,,,,,,,,TestWords/WAI_NA_VU.wav,,578bb26f6cc44500010448c8,2021-07-14_07h11.37.627,Agingstudy,2020.2.10,MacIntel,60,,,,,A,,,,,,,,,,,,,,,2,1,0.301,0,20,20,20,1,2,NEW,SIMILAR,,,,,,,,
,,,,,,,,,,,,,,,,TestWords/KO_SU_FAI.wav,,578bb26f6cc44500010448c8,2021-07-14_07h11.37.627,Agingstudy,2020.2.10,MacIntel,60,,,,,A,,,,,,,,,,,,,,,1,1,0.208,0,21,21,21,1,1,OLD,OLD,,,,,,,,
,,,,,,,,,,,,,,,,TestWords/SA_TAI_GI.wav,,578bb26f6cc44500010448c8,2021-07-14_07h11.37.627,Agingstudy,2020.2.10,MacIntel,60,,,,,A,,,,,,,,,,,,,,,1,0,0.444,0,22,22,22,1,2,NEW,SIMILAR,,,,,,,,
,,,,,,,,,,,,,,,,TestWords/RAY_PA_TI.wav,,578bb26f6cc44500010448c8,2021-07-14_07h11.37.627,Agingstudy,2020.2.10,MacIntel,60,,,,,A,,,,,,,,,,,,,,,1,1,0.32,0,23,23,23,1,1,OLD,OLD,,,,,,,,
,,,,,,,,,,,,,,,,TestWords/VU_NA_WAI.wav,,578bb26f6cc44500010448c8,2021-07-14_07h11.37.627,Agingstudy,2020.2.10,MacIntel,60,,,,,A,,,,,,,,,,,,,,,2,1,0.213,0,24,24,24,1,2,NEW,SIMILAR,,,,,,,,
,,,,,,,,,,,,,,,,TestWords/KAI_LAY_TA.wav,,578bb26f6cc44500010448c8,2021-07-14_07h11.37.627,Agingstudy,2020.2.10,MacIntel,60,,,,,A,,,,,,,,,,,,,,,1,1,0.165,0,25,25,25,1,1,OLD,OLD,,,,,,,,
,,,,,,,,,,,,,,,,TestWords/WAI_RO_JU.wav,,578bb26f6cc44500010448c8,2021-07-14_07h11.37.627,Agingstudy,2020.2.10,MacIntel,60,,,,,A,,,,,,,,,,,,,,,2,1,0.208,0,26,26,26,1,2,NEW,NEW,,,,,,,,
,,,,,,,,,,,,,,,,TestWords/KO_SU_FAI.wav,,578bb26f6cc44500010448c8,2021-07-14_07h11.37.627,Agingstudy,2020.2.10,MacIntel,60,,,,,A,,,,,,,,,,,,,,,1,1,0.39,0,27,27,27,1,1,OLD,OLD,,,,,,,,
,,,,,,,,,,,,,,,,TestWords/SA_GI_TAI.wav,,578bb26f6cc44500010448c8,2021-07-14_07h11.37.627,Agingstudy,2020.2.10,MacIntel,60,,,,,A,,,,,,,,,,,,,,,1,0,0.55,0,28,28,28,1,2,NEW,SIMILAR,,,,,,,,
,,,,,,,,,,,,,,,,TestWords/RAY_PA_TI.wav,,578bb26f6cc44500010448c8,2021-07-14_07h11.37.627,Agingstudy,2020.2.10,MacIntel,60,,,,,A,,,,,,,,,,,,,,,1,1,0.166,0,29,29,29,1,1,OLD,OLD,,,,,,,,
,,,,,,,,,,,,,,,,TestWords/GA_MU_ZI.wav,,578bb26f6cc44500010448c8,2021-07-14_07h11.37.627,Agingstudy,2020.2.10,MacIntel,60,,,,,A,,,,,,,,,,,,,,,1,0,0.357,0,30,30,30,1,2,NEW,NEW,,,,,,,,
,,,,,,,,,,,,,,,,TestWords/KAI_LAY_TA.wav,,578bb26f6cc44500010448c8,2021-07-14_07h11.37.627,Agingstudy,2020.2.10,MacIntel,60,,,,,A,,,,,,,,,,,,,,,2,0,0.492,0,31,31,31,1,1,OLD,OLD,,,,,,,,
,,,,,,,,,,,,,,,,TestWords/VU_WAI_NA.wav,,578bb26f6cc44500010448c8,2021-07-14_07h11.37.627,Agingstudy,2020.2.10,MacIntel,60,,,,,A,,,,,,,,,,,,,,,2,1,0.057,0,32,32,32,1,2,NEW,SIMILAR,,,,,,,,
,,,,,,,,,,,,,,,,TestWords/RAY_PA_TI.wav,,578bb26f6cc44500010448c8,2021-07-14_07h11.37.627,Agingstudy,2020.2.10,MacIntel,60,,,,,A,,,,,,,,,,,,,,,1,1,0.16,0,33,33,33,1,1,OLD,OLD,,,,,,,,
,,,,,,,,,,,,,,,,TestWords/LI_KAY_BA.wav,,578bb26f6cc44500010448c8,2021-07-14_07h11.37.627,Agingstudy,2020.2.10,MacIntel,60,,,,,A,,,,,,,,,,,,,,,1,0,0.412,0,34,34,34,1,2,NEW,NEW,,,,,,,,
,,,,,,,,,,,,,,,,TestWords/HI_NAY_VA.wav,,578bb26f6cc44500010448c8,2021-07-14_07h11.37.627,Agingstudy,2020.2.10,MacIntel,60,,,,,A,,,,,,,,,,,,,,,2,1,3.655,0,35,35,35,1,2,NEW,NEW,,,,,,,,
,,,,,,,,,,,,,,,,TestWords/KO_SU_FAI.wav,,578bb26f6cc44500010448c8,2021-07-14_07h11.37.627,Agingstudy,2020.2.10,MacIntel,60,,,,,A,,,,,,,,,,,,,,,1,1,0.602,0,36,36,36,1,1,OLD,OLD,,,,,,,,
,,,,,,,,,,,,,,,,TestWords/NA_VU_WAI.wav,,578bb26f6cc44500010448c8,2021-07-14_07h11.37.627,Agingstudy,2020.2.10,MacIntel,60,,,,,A,,,,,,,,,,,,,,,1,0,0.024,0,37,37,37,1,2,NEW,SIMILAR,,,,,,,,
,,,,,,,,,,,,,,,,TestWords/GA_MU_ZI.wav,,578bb26f6cc44500010448c8,2021-07-14_07h11.37.627,Agingstudy,2020.2.10,MacIntel,60,,,,,A,,,,,,,,,,,,,,,2,0,0.394,0,38,38,38,1,1,OLD,OLD,,,,,,,,
,,,,,,,,,,,,,,,,TestWords/KAI_LAY_TA.wav,,578bb26f6cc44500010448c8,2021-07-14_07h11.37.627,Agingstudy,2020.2.10,MacIntel,60,,,,,A,,,,,,,,,,,,,,,1,1,0.634,0,39,39,39,1,1,OLD,OLD,,,,,,,,
,,,,,,,,,,,,,,,,TestWords/DAI_RU_CHI.wav,,578bb26f6cc44500010448c8,2021-07-14_07h11.37.627,Agingstudy,2020.2.10,MacIntel,60,,,,,A,,,,,,,,,,,,,,,2,1,1.518,0,40,40,40,1,2,NEW,NEW,,,,,,,,
,,,,,,,,,,,,,,,,TestWords/NU_CHAY_SO.wav,,578bb26f6cc44500010448c8,2021-07-14_07h11.37.627,Agingstudy,2020.2.10,MacIntel,60,,,,,A,,,,,,,,,,,,,,,1,0,1.315,0,41,41,41,1,2,NEW,NEW,,,,,,,,
,,,,,,,,,,,,,,,,TestWords/RAY_PA_TI.wav,,578bb26f6cc44500010448c8,2021-07-14_07h11.37.627,Agingstudy,2020.2.10,MacIntel,60,,,,,A,,,,,,,,,,,,,,,1,1,0.444,0,42,42,42,1,1,OLD,OLD,,,,,,,,
,,,,,,,,,,,,,,,,TestWords/BA_KAY_LI.wav,,578bb26f6cc44500010448c8,2021-07-14_07h11.37.627,Agingstudy,2020.2.10,MacIntel,60,,,,,A,,,,,,,,,,,,,,,2,1,2.928,0,43,43,43,1,2,NEW,SIMILAR,,,,,,,,
,,,,,,,,,,,,,,,,TestWords/KO_SU_FAI.wav,,578bb26f6cc44500010448c8,2021-07-14_07h11.37.627,Agingstudy,2020.2.10,MacIntel,60,,,,,A,,,,,,,,,,,,,,,1,1,0.353,0,44,44,44,1,1,OLD,OLD,,,,,,,,
,,,,,,,,,,,,,,,,TestWords/GA_MU_ZI.wav,,578bb26f6cc44500010448c8,2021-07-14_07h11.37.627,Agingstudy,2020.2.10,MacIntel,60,,,,,A,,,,,,,,,,,,,,,2,0,0.685,0,45,45,45,1,1,OLD,OLD,,,,,,,,
,,,,,,,,,,,,,,,,TestWords/CHU_LA_PAY.wav,,578bb26f6cc44500010448c8,2021-07-14_07h11.37.627,Agingstudy,2020.2.10,MacIntel,60,,,,,A,,,,,,,,,,,,,,,1,0,0.301,0,46,46,46,1,2,NEW,NEW,,,,,,,,
,,,,,,,,,,,,,,,,TestWords/KAI_LAY_TA.wav,,578bb26f6cc44500010448c8,2021-07-14_07h11.37.627,Agingstudy,2020.2.10,MacIntel,60,,,,,A,,,,,,,,,,,,,,,2,0,0.109,0,47,47,47,1,1,OLD,OLD,,,,,,,,
,,,,,,,,,,,,,,,,TestWords/DAI_RU_CHI.wav,,578bb26f6cc44500010448c8,2021-07-14_07h11.37.627,Agingstudy,2020.2.10,MacIntel,60,,,,,A,,,,,,,,,,,,,,,2,0,0.379,0,48,48,48,1,1,OLD,OLD,,,,,,,,
,,,,,,,,,,,,,,,,TestWords/KO_SU_FAI.wav,,578bb26f6cc44500010448c8,2021-07-14_07h11.37.627,Agingstudy,2020.2.10,MacIntel,60,,,,,A,,,,,,,,,,,,,,,1,1,0.421,0,49,49,49,1,1,OLD,OLD,,,,,,,,
,,,,,,,,,,,,,,,,TestWords/KAY_LI_BA.wav,,578bb26f6cc44500010448c8,2021-07-14_07h11.37.627,Agingstudy,2020.2.10,MacIntel,60,,,,,A,,,,,,,,,,,,,,,2,1,0.45,0,50,50,50,1,2,NEW,SIMILAR,,,,,,,,
,,,,,,,,,,,,,,,,TestWords/RAY_PA_TI.wav,,578bb26f6cc44500010448c8,2021-07-14_07h11.37.627,Agingstudy,2020.2.10,MacIntel,60,,,,,A,,,,,,,,,,,,,,,1,1,0.281,0,51,51,51,1,1,OLD,OLD,,,,,,,,
,,,,,,,,,,,,,,,,TestWords/KAI_LAY_TA.wav,,578bb26f6cc44500010448c8,2021-07-14_07h11.37.627,Agingstudy,2020.2.10,MacIntel,60,,,,,A,,,,,,,,,,,,,,,1,1,0.243,0,52,52,52,1,1,OLD,OLD,,,,,,,,
,,,,,,,,,,,,,,,,TestWords/HO_NAY_VA.wav,,578bb26f6cc44500010448c8,2021-07-14_07h11.37.627,Agingstudy,2020.2.10,MacIntel,60,,,,,A,,,,,,,,,,,,,,,2,1,0.039,0,53,53,53,1,2,NEW,NEW,,,,,,,,
,,,,,,,,,,,,,,,,TestWords/GA_MU_ZI.wav,,578bb26f6cc44500010448c8,2021-07-14_07h11.37.627,Agingstudy,2020.2.10,MacIntel,60,,,,,A,,,,,,,,,,,,,,,1,1,0.527,0,54,54,54,1,1,OLD,OLD,,,,,,,,
,,,,,,,,,,,,,,,,TestWords/DAI_RU_CHI.wav,,578bb26f6cc44500010448c8,2021-07-14_07h11.37.627,Agingstudy,2020.2.10,MacIntel,60,,,,,A,,,,,,,,,,,,,,,2,0,0.209,0,55,55,55,1,1,OLD,OLD,,,,,,,,
,,,,,,,,,,,,,,,,TestWords/MO_PU_DAY.wav,,578bb26f6cc44500010448c8,2021-07-14_07h11.37.627,Agingstudy,2020.2.10,MacIntel,60,,,,,A,,,,,,,,,,,,,,,1,0,0.381,0,56,56,56,1,2,NEW,NEW,,,,,,,,
,,,,,,,,,,,,,,,,TestWords/KO_SU_FAI.wav,,578bb26f6cc44500010448c8,2021-07-14_07h11.37.627,Agingstudy,2020.2.10,MacIntel,60,,,,,A,,,,,,,,,,,,,,,1,1,0.724,0,57,57,57,1,1,OLD,OLD,,,,,,,,
,,,,,,,,,,,,,,,,TestWords/KAY_BA_LI.wav,,578bb26f6cc44500010448c8,2021-07-14_07h11.37.627,Agingstudy,2020.2.10,MacIntel,60,,,,,A,,,,,,,,,,,,,,,1,0,0.209,0,58,58,58,1,2,NEW,SIMILAR,,,,,,,,
,,,,,,,,,,,,,,,,TestWords/RAY_PA_TI.wav,,578bb26f6cc44500010448c8,2021-07-14_07h11.37.627,Agingstudy,2020.2.10,MacIntel,60,,,,,A,,,,,,,,,,,,,,,1,1,0.147,0,59,59,59,1,1,OLD,OLD,,,,,,,,
,,,,,,,,,,,,,,,,TestWords/KAI_LAY_TA.wav,,578bb26f6cc44500010448c8,2021-07-14_07h11.37.627,Agingstudy,2020.2.10,MacIntel,60,,,,,A,,,,,,,,,,,,,,,1,1,0.349,0,60,60,60,1,1,OLD,OLD,,,,,,,,
,,,,,,,,,,,,,,,,TestWords/GA_MU_ZI.wav,,578bb26f6cc44500010448c8,2021-07-14_07h11.37.627,Agingstudy,2020.2.10,MacIntel,60,,,,,A,,,,,,,,,,,,,,,1,1,0.113,0,61,61,61,1,1,OLD,OLD,,,,,,,,
,,,,,,,,,,,,,,,,TestWords/DAY_PU_MO.wav,,578bb26f6cc44500010448c8,2021-07-14_07h11.37.627,Agingstudy,2020.2.10,MacIntel,60,,,,,A,,,,,,,,,,,,,,,2,1,0.223,0,62,62,62,1,2,NEW,SIMILAR,,,,,,,,
,,,,,,,,,,,,,,,,TestWords/DAI_RU_CHI.wav,,578bb26f6cc44500010448c8,2021-07-14_07h11.37.627,Agingstudy,2020.2.10,MacIntel,60,,,,,A,,,,,,,,,,,,,,,2,0,0.454,0,63,63,63,1,1,OLD,OLD,,,,,,,,
,,,,,,,,,,,,,,,,TestWords/LI_BA_KAY.wav,,578bb26f6cc44500010448c8,2021-07-14_07h11.37.627,Agingstudy,2020.2.10,MacIntel,60,,,,,A,,,,,,,,,,,,,,,1,0,0.131,0,64,64,64,1,2,NEW,SIMILAR,,,,,,,,
,,,,,,,,,,,,,,,,TestWords/KAI_LAY_TA.wav,,578bb26f6cc44500010448c8,2021-07-14_07h11.37.627,Agingstudy,2020.2.10,MacIntel,60,,,,,A,,,,,,,,,,,,,,,1,1,0.242,0,65,65,65,1,1,OLD,OLD,,,,,,,,
,,,,,,,,,,,,,,,,TestWords/KO_SU_FAI.wav,,578bb26f6cc44500010448c8,2021-07-14_07h11.37.627,Agingstudy,2020.2.10,MacIntel,60,,,,,A,,,,,,,,,,,,,,,1,1,0.33,0,66,66,66,1,1,OLD,OLD,,,,,,,,
,,,,,,,,,,,,,,,,TestWords/DAY_MO_PU.wav,,578bb26f6cc44500010448c8,2021-07-14_07h11.37.627,Agingstudy,2020.2.10,MacIntel,60,,,,,A,,,,,,,,,,,,,,,2,1,0.393,0,67,67,67,1,2,NEW,SIMILAR,,,,,,,,
,,,,,,,,,,,,,,,,TestWords/RAY_PA_TI.wav,,578bb26f6cc44500010448c8,2021-07-14_07h11.37.627,Agingstudy,2020.2.10,MacIntel,60,,,,,A,,,,,,,,,,,,,,,1,1,0.06,0,68,68,68,1,1,OLD,OLD,,,,,,,,
,,,,,,,,,,,,,,,,TestWords/GA_MU_ZI.wav,,578bb26f6cc44500010448c8,2021-07-14_07h11.37.627,Agingstudy,2020.2.10,MacIntel,60,,,,,A,,,,,,,,,,,,,,,1,1,0.128,0,69,69,69,1,1,OLD,OLD,,,,,,,,
,,,,,,,,,,,,,,,,TestWords/BA_LI_KAY.wav,,578bb26f6cc44500010448c8,2021-07-14_07h11.37.627,Agingstudy,2020.2.10,MacIntel,60,,,,,A,,,,,,,,,,,,,,,2,1,0.208,0,70,70,70,1,2,NEW,SIMILAR,,,,,,,,
,,,,,,,,,,,,,,,,TestWords/DAI_RU_CHI.wav,,578bb26f6cc44500010448c8,2021-07-14_07h11.37.627,Agingstudy,2020.2.10,MacIntel,60,,,,,A,,,,,,,,,,,,,,,1,1,0.357,0,71,71,71,1,1,OLD,OLD,,,,,,,,
,,,,,,,,,,,,,,,,TestWords/LU_HAI_BO.wav,,578bb26f6cc44500010448c8,2021-07-14_07h11.37.627,Agingstudy,2020.2.10,MacIntel,60,,,,,A,,,,,,,,,,,,,,,1,0,0.69,0,72,72,72,1,2,NEW,NEW,,,,,,,,
,,,,,,,,,,,,,,,,TestWords/RAY_PA_TI.wav,,578bb26f6cc44500010448c8,2021-07-14_07h11.37.627,Agingstudy,2020.2.10,MacIntel,60,,,,,A,,,,,,,,,,,,,,,1,1,0.108,0,73,73,73,1,1,OLD,OLD,,,,,,,,
,,,,,,,,,,,,,,,,TestWords/GA_MU_ZI.wav,,578bb26f6cc44500010448c8,2021-07-14_07h11.37.627,Agingstudy,2020.2.10,MacIntel,60,,,,,A,,,,,,,,,,,,,,,1,1,0.01,0,74,74,74,1,1,OLD,OLD,,,,,,,,
,,,,,,,,,,,,,,,,TestWords/MO_DAY_PU.wav,,578bb26f6cc44500010448c8,2021-07-14_07h11.37.627,Agingstudy,2020.2.10,MacIntel,60,,,,,A,,,,,,,,,,,,,,,1,0,0.166,0,75,75,75,1,2,NEW,SIMILAR,,,,,,,,
,,,,,,,,,,,,,,,,TestWords/DAI_RU_CHI.wav,,578bb26f6cc44500010448c8,2021-07-14_07h11.37.627,Agingstudy,2020.2.10,MacIntel,60,,,,,A,,,,,,,,,,,,,,,1,1,0.21,0,76,76,76,1,1,OLD,OLD,,,,,,,,
,,,,,,,,,,,,,,,,TestWords/ZO_FU_RAI.wav,,578bb26f6cc44500010448c8,2021-07-14_07h11.37.627,Agingstudy,2020.2.10,MacIntel,60,,,,,A,,,,,,,,,,,,,,,2,1,0.105,0,77,77,77,1,2,NEW,NEW,,,,,,,,
,,,,,,,,,,,,,,,,TestWords/NO_WA_BAY.wav,,578bb26f6cc44500010448c8,2021-07-14_07h11.37.627,Agingstudy,2020.2.10,MacIntel,60,,,,,A,,,,,,,,,,,,,,,1,0,0.42,0,78,78,78,1,2,NEW,NEW,,,,,,,,
,,,,,,,,,,,,,,,,TestWords/GA_MU_ZI.wav,,578bb26f6cc44500010448c8,2021-07-14_07h11.37.627,Agingstudy,2020.2.10,MacIntel,60,,,,,A,,,,,,,,,,,,,,,1,1,0.101,0,79,79,79,1,1,OLD,OLD,,,,,,,,
,,,,,,,,,,,,,,,,TestWords/DAI_RU_CHI.wav,,578bb26f6cc44500010448c8,2021-07-14_07h11.37.627,Agingstudy,2020.2.10,MacIntel,60,,,,,A,,,,,,,,,,,,,,,1,1,0.31,0,80,80,80,1,1,OLD,OLD,,,,,,,,
,,,,,,,,,,,,,,,,TestWords/PU_DAY_MO.wav,,578bb26f6cc44500010448c8,2021-07-14_07h11.37.627,Agingstudy,2020.2.10,MacIntel,60,,,,,A,,,,,,,,,,,,,,,1,0,0.172,0,81,81,81,1,2,NEW,SIMILAR,,,,,,,,
,,,,,,,,,,,,,,,,TestWords/RAI_ZO_FU.wav,,578bb26f6cc44500010448c8,2021-07-14_07h11.37.627,Agingstudy,2020.2.10,MacIntel,60,,,,,A,,,,,,,,,,,,,,,1,0,0.505,0,82,82,82,1,2,NEW,SIMILAR,,,,,,,,
,,,,,,,,,,,,,,,,TestWords/GA_MU_ZI.wav,,578bb26f6cc44500010448c8,2021-07-14_07h11.37.627,Agingstudy,2020.2.10,MacIntel,60,,,,,A,,,,,,,,,,,,,,,1,1,0.071,0,83,83,83,1,1,OLD,OLD,,,,,,,,
,,,,,,,,,,,,,,,,TestWords/PAI_LU_WA.wav,,578bb26f6cc44500010448c8,2021-07-14_07h11.37.627,Agingstudy,2020.2.10,MacIntel,60,,,,,A,,,,,,,,,,,,,,,1,0,0.348,0,84,84,84,1,2,NEW,NEW,,,,,,,,
,,,,,,,,,,,,,,,,TestWords/PU_MO_DAY.wav,,578bb26f6cc44500010448c8,2021-07-14_07h11.37.627,Agingstudy,2020.2.10,MacIntel,60,,,,,A,,,,,,,,,,,,,,,1,0,0.184,0,85,85,85,1,2,NEW,SIMILAR,,,,,,,,
,,,,,,,,,,,,,,,,TestWords/DAI_RU_CHI.wav,,578bb26f6cc44500010448c8,2021-07-14_07h11.37.627,Agingstudy,2020.2.10,MacIntel,60,,,,,A,,,,,,,,,,,,,,,1,1,0.291,0,86,86,86,1,1,OLD,OLD,,,,,,,,
,,,,,,,,,,,,,,,,TestWords/ZO_RAI_FU.wav,,578bb26f6cc44500010448c8,2021-07-14_07h11.37.627,Agingstudy,2020.2.10,MacIntel,60,,,,,A,,,,,,,,,,,,,,,1,0,0.328,0,87,87,87,1,2,NEW,SIMILAR,,,,,,,,
,,,,,,,,,,,,,,,,TestWords/FI_GU_CHA.wav,,578bb26f6cc44500010448c8,2021-07-14_07h11.37.627,Agingstudy,2020.2.10,MacIntel,60,,,,,A,,,,,,,,,,,,,,,2,1,0.386,0,88,88,88,1,2,NEW,NEW,,,,,,,,
,,,,,,,,,,,,,,,,TestWords/GA_MU_ZI.wav,,578bb26f6cc44500010448c8,2021-07-14_07h11.37.627,Agingstudy,2020.2.10,MacIntel,60,,,,,A,,,,,,,,,,,,,,,1,1,0.059,0,89,89,89,1,1,OLD,OLD,,,,,,,,
,,,,,,,,,,,,,,,,TestWords/DAI_RU_CHI.wav,,578bb26f6cc44500010448c8,2021-07-14_07h11.37.627,Agingstudy,2020.2.10,MacIntel,60,,,,,A,,,,,,,,,,,,,,,1,1,0.253,0,90,90,90,1,1,OLD,OLD,,,,,,,,
,,,,,,,,,,,,,,,,TestWords/FU_RAI_ZO.wav,,578bb26f6cc44500010448c8,2021-07-14_07h11.37.627,Agingstudy,2020.2.10,MacIntel,60,,,,,A,,,,,,,,,,,,,,,1,0,0.609,0,91,91,91,1,2,NEW,SIMILAR,,,,,,,,
,,,,,,,,,,,,,,,,TestWords/GU_CHAI_PI.wav,,578bb26f6cc44500010448c8,2021-07-14_07h11.37.627,Agingstudy,2020.2.10,MacIntel,60,,,,,A,,,,,,,,,,,,,,,1,0,0.408,0,92,92,92,1,2,NEW,NEW,,,,,,,,
,,,,,,,,,,,,,,,,TestWords/GA_MU_ZI.wav,,578bb26f6cc44500010448c8,2021-07-14_07h11.37.627,Agingstudy,2020.2.10,MacIntel,60,,,,,A,,,,,,,,,,,,,,,1,1,0.106,0,93,93,93,1,1,OLD,OLD,,,,,,,,
,,,,,,,,,,,,,,,,TestWords/DAI_RU_CHI.wav,,578bb26f6cc44500010448c8,2021-07-14_07h11.37.627,Agingstudy,2020.2.10,MacIntel,60,,,,,A,,,,,,,,,,,,,,,1,1,0.282,0,94,94,94,1,1,OLD,OLD,,,,,,,,
,,,,,,,,,,,,,,,,TestWords/FU_ZO_RAI.wav,,578bb26f6cc44500010448c8,2021-07-14_07h11.37.627,Agingstudy,2020.2.10,MacIntel,60,,,,,A,,,,,,,,,,,,,,,1,0,1.081,0,95,95,95,1,2,NEW,SIMILAR,,,,,,,,
,,,,,,,,,,,,,,,,TestWords/VAI_HO_LA.wav,,578bb26f6cc44500010448c8,2021-07-14_07h11.37.627,Agingstudy,2020.2.10,MacIntel,60,,,,,A,,,,,,,,,,,,,,,2,1,0.65,0,96,96,96,1,2,NEW,NEW,,,,,,,,
,,,,,,,,,,,,,,,,TestWords/DAI_RU_CHI.wav,,578bb26f6cc44500010448c8,2021-07-14_07h11.37.627,Agingstudy,2020.2.10,MacIntel,60,,,,,A,,,,,,,,,,,,,,,1,1,0.117,0,97,97,97,1,1,OLD,OLD,,,,,,,,
,,,,,,,,,,,,,,,,TestWords/LA_ZAY_CHAI.wav,,578bb26f6cc44500010448c8,2021-07-14_07h11.37.627,Agingstudy,2020.2.10,MacIntel,60,,,,,A,,,,,,,,,,,,,,,1,0,0.514,0,98,98,98,1,2,NEW,NEW,,,,,,,,
,,,,,,,,,,,,,,,,TestWords/RAI_FU_ZO.wav,,578bb26f6cc44500010448c8,2021-07-14_07h11.37.627,Agingstudy,2020.2.10,MacIntel,60,,,,,A,,,,,,,,,,,,,,,1,0,0.676,0,99,99,99,1,2,NEW,SIMILAR,,,,,,,,
,,,,,,,,,,,,,,,,,,578bb26f6cc44500010448c8,2021-07-14_07h11.37.627,Agingstudy,2020.2.10,MacIntel,60,,,,,,,,,,,,,,,,,,,,,,,,,,,,,,,0,0,0,0,1,,,
,,,,,,,,,,,,,,,,,,578bb26f6cc44500010448c8,2021-07-14_07h11.37.627,Agingstudy,2020.2.10,MacIntel,60,,,,,,,,,,,,,,,,,,,,,,,,,,,,,,,,,,,,return,18.676,
