Welcome0Continue.keys,Welcome0Continue.rt,SoundCheckBegin.keys,SoundCheckBegin.rt,SoundCheckEndKey.keys,SoundCheckEndKey.rt,HeadphoneContinueKey.keys,HeadphoneContinueKey.rt,CheckResp.keys,CheckResp.corr,CheckResp.rt,HeadphoneLoop.thisRepN,HeadphoneLoop.thisTrialN,HeadphoneLoop.thisN,HeadphoneLoop.thisIndex,HeadphoneLoop.ran,File,Correct,participant,date,expName,psychopyVersion,OS,frameRate,RepeatAgainKey.keys,RepeatAgainKey.rt,RepeatAgainLoop.thisRepN,RepeatAgainLoop.thisTrialN,RepeatAgainLoop.thisN,RepeatAgainLoop.thisIndex,RepeatAgainLoop.ran,Headphone_retest.thisRepN,Headphone_retest.thisTrialN,Headphone_retest.thisN,Headphone_retest.thisIndex,Headphone_retest.ran,ContinueKey8.keys,ContinueKey8.rt,MSTWelcomeContKey.keys,MSTWelcomeContKey.rt,Condition,MSTTrainIntroKey.keys,MSTTrainIntroKey.rt,MSTTrainKeys.keys,MSTTrainKeys.corr,MSTTrainKeys.rt,MSTTrainLoop.thisRepN,MSTTrainLoop.thisTrialN,MSTTrainLoop.thisN,MSTTrainLoop.thisIndex,MSTTrainLoop.ran,SoundFile,Type,MSTTestBeginKey.keys,MSTTestBeginKey.rt,MST_resp.keys,MST_resp.corr,MST_resp.rt,MSTPlayLoop.thisRepN,MSTPlayLoop.thisTrialN,MSTPlayLoop.thisN,MSTPlayLoop.thisIndex,MSTPlayLoop.ran,WordCorrect,Correct_type,WordType,MSTLoop.thisRepN,MSTLoop.thisTrialN,MSTLoop.thisN,MSTLoop.thisIndex,MSTLoop.ran,EndAllKey.keys,EndAllKey.rt,FeedbackResp.text
space,21.084,space,7.3034,space,9.0435,space,23.2533,2,0,22.4465,0,0,0,0,1,Headphone/t1_1.wav,1,596c1af50e679d0001faca67,2021-07-19_20h20.16.629,Agingstudy,2020.2.10,Win32,60,,,,,,,,,,,,,,,,,,,,,,,,,,,,,,,,,,,,,,,,,,,,,,,,,,
,,,,,,,,1,0,7.0166,0,1,1,3,1,Headphone/t2_2.wav,2,596c1af50e679d0001faca67,2021-07-19_20h20.16.629,Agingstudy,2020.2.10,Win32,60,,,,,,,,,,,,,,,,,,,,,,,,,,,,,,,,,,,,,,,,,,,,,,,,,,
,,,,,,,,2,1,5.1013,0,2,2,2,1,Headphone/t2_1.wav,2,596c1af50e679d0001faca67,2021-07-19_20h20.16.629,Agingstudy,2020.2.10,Win32,60,,,,,,,,,,,,,,,,,,,,,,,,,,,,,,,,,,,,,,,,,,,,,,,,,,
,,,,,,,,3,1,1.0343,0,3,3,4,1,Headphone/t3_1.wav,3,596c1af50e679d0001faca67,2021-07-19_20h20.16.629,Agingstudy,2020.2.10,Win32,60,,,,,,,,,,,,,,,,,,,,,,,,,,,,,,,,,,,,,,,,,,,,,,,,,,
,,,,,,,,3,1,0.7506,0,4,4,5,1,Headphone/t3_2.wav,3,596c1af50e679d0001faca67,2021-07-19_20h20.16.629,Agingstudy,2020.2.10,Win32,60,,,,,,,,,,,,,,,,,,,,,,,,,,,,,,,,,,,,,,,,,,,,,,,,,,
,,,,,,,,1,1,1.6845,0,5,5,1,1,Headphone/t1_2.wav,1,596c1af50e679d0001faca67,2021-07-19_20h20.16.629,Agingstudy,2020.2.10,Win32,60,,,,,,,,,,,,,,,,,,,,,,,,,,,,,,,,,,,,,,,,,,,,,,,,,,
,,,,,,,,,,,,,,,,,,596c1af50e679d0001faca67,2021-07-19_20h20.16.629,Agingstudy,2020.2.10,Win32,60,space,24.8495,0,0,0,0,1,,,,,,,,,,,,,,,,,,,,,,,,,,,,,,,,,,,,,,,,,,,
,,,,,,,,,,,,,,,,,,596c1af50e679d0001faca67,2021-07-19_20h20.16.629,Agingstudy,2020.2.10,Win32,60,,,,,,,,0,0,0,0,1,,,,,,,,,,,,,,,,,,,,,,,,,,,,,,,,,,,,,,
,,,,,,,,2,1,1.0176,0,0,0,2,1,Headphone/t2_1.wav,2,596c1af50e679d0001faca67,2021-07-19_20h20.16.629,Agingstudy,2020.2.10,Win32,60,,,,,,,,,,,,,,,,,,,,,,,,,,,,,,,,,,,,,,,,,,,,,,,,,,
,,,,,,,,2,1,1.7511,0,1,1,3,1,Headphone/t2_2.wav,2,596c1af50e679d0001faca67,2021-07-19_20h20.16.629,Agingstudy,2020.2.10,Win32,60,,,,,,,,,,,,,,,,,,,,,,,,,,,,,,,,,,,,,,,,,,,,,,,,,,
,,,,,,,,3,1,0.4516,0,2,2,5,1,Headphone/t3_2.wav,3,596c1af50e679d0001faca67,2021-07-19_20h20.16.629,Agingstudy,2020.2.10,Win32,60,,,,,,,,,,,,,,,,,,,,,,,,,,,,,,,,,,,,,,,,,,,,,,,,,,
,,,,,,,,1,1,0.3351,0,3,3,0,1,Headphone/t1_1.wav,1,596c1af50e679d0001faca67,2021-07-19_20h20.16.629,Agingstudy,2020.2.10,Win32,60,,,,,,,,,,,,,,,,,,,,,,,,,,,,,,,,,,,,,,,,,,,,,,,,,,
,,,,,,,,1,1,0.2012,0,4,4,1,1,Headphone/t1_2.wav,1,596c1af50e679d0001faca67,2021-07-19_20h20.16.629,Agingstudy,2020.2.10,Win32,60,,,,,,,,,,,,,,,,,,,,,,,,,,,,,,,,,,,,,,,,,,,,,,,,,,
,,,,,,,,3,1,0.2512,0,5,5,4,1,Headphone/t3_1.wav,3,596c1af50e679d0001faca67,2021-07-19_20h20.16.629,Agingstudy,2020.2.10,Win32,60,,,,,,,,,,,,,,,,,,,,,,,,,,,,,,,,,,,,,,,,,,,,,,,,,,
,,,,,,,,,,,,,,,,,2,596c1af50e679d0001faca67,2021-07-19_20h20.16.629,Agingstudy,2020.2.10,Win32,60,,,,,,,,,,,,,space,5.9445,space,70.6095,1,space,14.1035,1,0,11.6318,0,0,0,0,1,Training/FO_YI_LAY.wav,NEW,,,,,,,,,,,,,,,,,,,,,
,,,,,,,,,,,,,,,,,1,596c1af50e679d0001faca67,2021-07-19_20h20.16.629,Agingstudy,2020.2.10,Win32,60,,,,,,,,,,,,,,,,,,,,1,1,8.0049,0,1,1,1,1,Training/FO_YI_LAY.wav,OLD,,,,,,,,,,,,,,,,,,,,,
,,,,,,,,,,,,,,,,,2,596c1af50e679d0001faca67,2021-07-19_20h20.16.629,Agingstudy,2020.2.10,Win32,60,,,,,,,,,,,,,,,,,,,,2,1,6.1091,0,2,2,2,1,Training/YO_BU_JAY.wav,NEW,,,,,,,,,,,,,,,,,,,,,
,,,,,,,,,,,,,,,,,2,596c1af50e679d0001faca67,2021-07-19_20h20.16.629,Agingstudy,2020.2.10,Win32,60,,,,,,,,,,,,,,,,,,,,2,1,46.4361,0,3,3,3,1,Training/JAY_YO_BU.wav,SIMILAR,,,,,,,,,,,,,,,,,,,,,
,,,,,,,,,,,,,,,,,1,596c1af50e679d0001faca67,2021-07-19_20h20.16.629,Agingstudy,2020.2.10,Win32,60,,,,,,,,,,,,,,,,,,,,2,0,5.1228,0,4,4,4,1,Training/FO_YI_LAY.wav,OLD,,,,,,,,,,,,,,,,,,,,,
,,,,,,,,,,,,,,,,TestWords/HO_NAY_VA.wav,,596c1af50e679d0001faca67,2021-07-19_20h20.16.629,Agingstudy,2020.2.10,Win32,60,,,,,,,,,,,,,,,,,E,,,,,,,,,,,,,space,19.6264,2,1,14.8839,0,0,0,0,1,2,NEW,NEW,,,,,,,,
,,,,,,,,,,,,,,,,TestWords/LU_HAI_BO.wav,,596c1af50e679d0001faca67,2021-07-19_20h20.16.629,Agingstudy,2020.2.10,Win32,60,,,,,,,,,,,,,,,,,E,,,,,,,,,,,,,,,2,1,17.934,0,1,1,1,1,2,NEW,NEW,,,,,,,,
,,,,,,,,,,,,,,,,TestWords/GA_MU_ZI.wav,,596c1af50e679d0001faca67,2021-07-19_20h20.16.629,Agingstudy,2020.2.10,Win32,60,,,,,,,,,,,,,,,,,E,,,,,,,,,,,,,,,2,1,3.2018,0,2,2,2,1,2,NEW,NEW,,,,,,,,
,,,,,,,,,,,,,,,,TestWords/BA_KAY_LI.wav,,596c1af50e679d0001faca67,2021-07-19_20h20.16.629,Agingstudy,2020.2.10,Win32,60,,,,,,,,,,,,,,,,,E,,,,,,,,,,,,,,,2,1,5.1006,0,3,3,3,1,2,NEW,NEW,,,,,,,,
,,,,,,,,,,,,,,,,TestWords/DA_CHU_VAI.wav,,596c1af50e679d0001faca67,2021-07-19_20h20.16.629,Agingstudy,2020.2.10,Win32,60,,,,,,,,,,,,,,,,,E,,,,,,,,,,,,,,,2,1,5.6351,0,4,4,4,1,2,NEW,NEW,,,,,,,,
,,,,,,,,,,,,,,,,TestWords/CHU_LA_PAY.wav,,596c1af50e679d0001faca67,2021-07-19_20h20.16.629,Agingstudy,2020.2.10,Win32,60,,,,,,,,,,,,,,,,,E,,,,,,,,,,,,,,,2,1,6.1011,0,5,5,5,1,2,NEW,NEW,,,,,,,,
,,,,,,,,,,,,,,,,TestWords/RAY_PA_TI.wav,,596c1af50e679d0001faca67,2021-07-19_20h20.16.629,Agingstudy,2020.2.10,Win32,60,,,,,,,,,,,,,,,,,E,,,,,,,,,,,,,,,2,1,4.9342,0,6,6,6,1,2,NEW,NEW,,,,,,,,
,,,,,,,,,,,,,,,,TestWords/WAI_VU_NA.wav,,596c1af50e679d0001faca67,2021-07-19_20h20.16.629,Agingstudy,2020.2.10,Win32,60,,,,,,,,,,,,,,,,,E,,,,,,,,,,,,,,,2,1,7.0842,0,7,7,7,1,2,NEW,NEW,,,,,,,,
,,,,,,,,,,,,,,,,TestWords/VAI_HO_LA.wav,,596c1af50e679d0001faca67,2021-07-19_20h20.16.629,Agingstudy,2020.2.10,Win32,60,,,,,,,,,,,,,,,,,E,,,,,,,,,,,,,,,1,0,5.0677,0,8,8,8,1,2,NEW,NEW,,,,,,,,
,,,,,,,,,,,,,,,,TestWords/KAY_LI_BA.wav,,596c1af50e679d0001faca67,2021-07-19_20h20.16.629,Agingstudy,2020.2.10,Win32,60,,,,,,,,,,,,,,,,,E,,,,,,,,,,,,,,,2,1,7.518,0,9,9,9,1,2,NEW,SIMILAR,,,,,,,,
,,,,,,,,,,,,,,,,TestWords/GA_MU_ZI.wav,,596c1af50e679d0001faca67,2021-07-19_20h20.16.629,Agingstudy,2020.2.10,Win32,60,,,,,,,,,,,,,,,,,E,,,,,,,,,,,,,,,2,0,2.4568,0,10,10,10,1,1,OLD,OLD,,,,,,,,
,,,,,,,,,,,,,,,,TestWords/LA_ZAY_CHAI.wav,,596c1af50e679d0001faca67,2021-07-19_20h20.16.629,Agingstudy,2020.2.10,Win32,60,,,,,,,,,,,,,,,,,E,,,,,,,,,,,,,,,2,1,4.6133,0,11,11,11,1,2,NEW,NEW,,,,,,,,
,,,,,,,,,,,,,,,,TestWords/RAY_PA_TI.wav,,596c1af50e679d0001faca67,2021-07-19_20h20.16.629,Agingstudy,2020.2.10,Win32,60,,,,,,,,,,,,,,,,,E,,,,,,,,,,,,,,,1,1,11.6696,0,12,12,12,1,1,OLD,OLD,,,,,,,,
,,,,,,,,,,,,,,,,TestWords/WAI_NA_VU.wav,,596c1af50e679d0001faca67,2021-07-19_20h20.16.629,Agingstudy,2020.2.10,Win32,60,,,,,,,,,,,,,,,,,E,,,,,,,,,,,,,,,1,0,6.368,0,13,13,13,1,2,NEW,SIMILAR,,,,,,,,
,,,,,,,,,,,,,,,,TestWords/DAI_RU_CHI.wav,,596c1af50e679d0001faca67,2021-07-19_20h20.16.629,Agingstudy,2020.2.10,Win32,60,,,,,,,,,,,,,,,,,E,,,,,,,,,,,,,,,2,1,11.3202,0,14,14,14,1,2,NEW,NEW,,,,,,,,
,,,,,,,,,,,,,,,,TestWords/KAY_BA_LI.wav,,596c1af50e679d0001faca67,2021-07-19_20h20.16.629,Agingstudy,2020.2.10,Win32,60,,,,,,,,,,,,,,,,,E,,,,,,,,,,,,,,,2,1,15.0458,0,15,15,15,1,2,NEW,SIMILAR,,,,,,,,
,,,,,,,,,,,,,,,,TestWords/GA_MU_ZI.wav,,596c1af50e679d0001faca67,2021-07-19_20h20.16.629,Agingstudy,2020.2.10,Win32,60,,,,,,,,,,,,,,,,,E,,,,,,,,,,,,,,,1,1,5.5173,0,16,16,16,1,1,OLD,OLD,,,,,,,,
,,,,,,,,,,,,,,,,TestWords/VU_NA_WAI.wav,,596c1af50e679d0001faca67,2021-07-19_20h20.16.629,Agingstudy,2020.2.10,Win32,60,,,,,,,,,,,,,,,,,E,,,,,,,,,,,,,,,2,1,6.3506,0,17,17,17,1,2,NEW,SIMILAR,,,,,,,,
,,,,,,,,,,,,,,,,TestWords/RAY_PA_TI.wav,,596c1af50e679d0001faca67,2021-07-19_20h20.16.629,Agingstudy,2020.2.10,Win32,60,,,,,,,,,,,,,,,,,E,,,,,,,,,,,,,,,1,1,7.0171,0,18,18,18,1,1,OLD,OLD,,,,,,,,
,,,,,,,,,,,,,,,,TestWords/LI_BA_KAY.wav,,596c1af50e679d0001faca67,2021-07-19_20h20.16.629,Agingstudy,2020.2.10,Win32,60,,,,,,,,,,,,,,,,,E,,,,,,,,,,,,,,,2,1,11.0441,0,19,19,19,1,2,NEW,SIMILAR,,,,,,,,
,,,,,,,,,,,,,,,,TestWords/DAY_MO_PU.wav,,596c1af50e679d0001faca67,2021-07-19_20h20.16.629,Agingstudy,2020.2.10,Win32,60,,,,,,,,,,,,,,,,,E,,,,,,,,,,,,,,,1,0,4.3052,0,20,20,20,1,2,NEW,NEW,,,,,,,,
,,,,,,,,,,,,,,,,TestWords/DAI_RU_CHI.wav,,596c1af50e679d0001faca67,2021-07-19_20h20.16.629,Agingstudy,2020.2.10,Win32,60,,,,,,,,,,,,,,,,,E,,,,,,,,,,,,,,,2,0,4.2511,0,21,21,21,1,1,OLD,OLD,,,,,,,,
,,,,,,,,,,,,,,,,TestWords/NU_CHAY_SO.wav,,596c1af50e679d0001faca67,2021-07-19_20h20.16.629,Agingstudy,2020.2.10,Win32,60,,,,,,,,,,,,,,,,,E,,,,,,,,,,,,,,,2,1,2.3508,0,22,22,22,1,2,NEW,NEW,,,,,,,,
,,,,,,,,,,,,,,,,TestWords/VU_WAI_NA.wav,,596c1af50e679d0001faca67,2021-07-19_20h20.16.629,Agingstudy,2020.2.10,Win32,60,,,,,,,,,,,,,,,,,E,,,,,,,,,,,,,,,2,1,5.2338,0,23,23,23,1,2,NEW,SIMILAR,,,,,,,,
,,,,,,,,,,,,,,,,TestWords/GA_MU_ZI.wav,,596c1af50e679d0001faca67,2021-07-19_20h20.16.629,Agingstudy,2020.2.10,Win32,60,,,,,,,,,,,,,,,,,E,,,,,,,,,,,,,,,2,0,4.5757,0,24,24,24,1,1,OLD,OLD,,,,,,,,
,,,,,,,,,,,,,,,,TestWords/RAY_PA_TI.wav,,596c1af50e679d0001faca67,2021-07-19_20h20.16.629,Agingstudy,2020.2.10,Win32,60,,,,,,,,,,,,,,,,,E,,,,,,,,,,,,,,,1,1,1.5063,0,25,25,25,1,1,OLD,OLD,,,,,,,,
,,,,,,,,,,,,,,,,TestWords/KAI_LAY_TA.wav,,596c1af50e679d0001faca67,2021-07-19_20h20.16.629,Agingstudy,2020.2.10,Win32,60,,,,,,,,,,,,,,,,,E,,,,,,,,,,,,,,,2,1,1.77,0,26,26,26,1,2,NEW,NEW,,,,,,,,
,,,,,,,,,,,,,,,,TestWords/TAI_SA_GI.wav,,596c1af50e679d0001faca67,2021-07-19_20h20.16.629,Agingstudy,2020.2.10,Win32,60,,,,,,,,,,,,,,,,,E,,,,,,,,,,,,,,,2,1,5.7232,0,27,27,27,1,2,NEW,NEW,,,,,,,,
,,,,,,,,,,,,,,,,TestWords/BA_LI_KAY.wav,,596c1af50e679d0001faca67,2021-07-19_20h20.16.629,Agingstudy,2020.2.10,Win32,60,,,,,,,,,,,,,,,,,E,,,,,,,,,,,,,,,2,1,3.6006,0,28,28,28,1,2,NEW,SIMILAR,,,,,,,,
,,,,,,,,,,,,,,,,TestWords/KO_SU_FAI.wav,,596c1af50e679d0001faca67,2021-07-19_20h20.16.629,Agingstudy,2020.2.10,Win32,60,,,,,,,,,,,,,,,,,E,,,,,,,,,,,,,,,2,1,6.2382,0,29,29,29,1,2,NEW,NEW,,,,,,,,
,,,,,,,,,,,,,,,,TestWords/MO_DAY_PU.wav,,596c1af50e679d0001faca67,2021-07-19_20h20.16.629,Agingstudy,2020.2.10,Win32,60,,,,,,,,,,,,,,,,,E,,,,,,,,,,,,,,,2,1,11.1151,0,30,30,30,1,2,NEW,SIMILAR,,,,,,,,
,,,,,,,,,,,,,,,,TestWords/DAI_RU_CHI.wav,,596c1af50e679d0001faca67,2021-07-19_20h20.16.629,Agingstudy,2020.2.10,Win32,60,,,,,,,,,,,,,,,,,E,,,,,,,,,,,,,,,1,1,1.484,0,31,31,31,1,1,OLD,OLD,,,,,,,,
,,,,,,,,,,,,,,,,TestWords/NA_VU_WAI.wav,,596c1af50e679d0001faca67,2021-07-19_20h20.16.629,Agingstudy,2020.2.10,Win32,60,,,,,,,,,,,,,,,,,E,,,,,,,,,,,,,,,2,1,7.1002,0,32,32,32,1,2,NEW,SIMILAR,,,,,,,,
,,,,,,,,,,,,,,,,TestWords/KAI_LAY_TA.wav,,596c1af50e679d0001faca67,2021-07-19_20h20.16.629,Agingstudy,2020.2.10,Win32,60,,,,,,,,,,,,,,,,,E,,,,,,,,,,,,,,,2,0,5.4716,0,33,33,33,1,1,OLD,OLD,,,,,,,,
,,,,,,,,,,,,,,,,TestWords/RAY_PA_TI.wav,,596c1af50e679d0001faca67,2021-07-19_20h20.16.629,Agingstudy,2020.2.10,Win32,60,,,,,,,,,,,,,,,,,E,,,,,,,,,,,,,,,1,1,1.5635,0,34,34,34,1,1,OLD,OLD,,,,,,,,
,,,,,,,,,,,,,,,,TestWords/GA_MU_ZI.wav,,596c1af50e679d0001faca67,2021-07-19_20h20.16.629,Agingstudy,2020.2.10,Win32,60,,,,,,,,,,,,,,,,,E,,,,,,,,,,,,,,,1,1,1.173,0,35,35,35,1,1,OLD,OLD,,,,,,,,
,,,,,,,,,,,,,,,,TestWords/GI_SA_TAI.wav,,596c1af50e679d0001faca67,2021-07-19_20h20.16.629,Agingstudy,2020.2.10,Win32,60,,,,,,,,,,,,,,,,,E,,,,,,,,,,,,,,,1,0,2.4689,0,36,36,36,1,2,NEW,SIMILAR,,,,,,,,
,,,,,,,,,,,,,,,,TestWords/KO_SU_FAI.wav,,596c1af50e679d0001faca67,2021-07-19_20h20.16.629,Agingstudy,2020.2.10,Win32,60,,,,,,,,,,,,,,,,,E,,,,,,,,,,,,,,,2,0,1.5333,0,37,37,37,1,1,OLD,OLD,,,,,,,,
,,,,,,,,,,,,,,,,TestWords/LI_KAY_BA.wav,,596c1af50e679d0001faca67,2021-07-19_20h20.16.629,Agingstudy,2020.2.10,Win32,60,,,,,,,,,,,,,,,,,E,,,,,,,,,,,,,,,1,0,1.7538,0,38,38,38,1,2,NEW,SIMILAR,,,,,,,,
,,,,,,,,,,,,,,,,TestWords/NA_WAI_VU.wav,,596c1af50e679d0001faca67,2021-07-19_20h20.16.629,Agingstudy,2020.2.10,Win32,60,,,,,,,,,,,,,,,,,E,,,,,,,,,,,,,,,2,1,4.623,0,39,39,39,1,2,NEW,SIMILAR,,,,,,,,
,,,,,,,,,,,,,,,,TestWords/KAI_LAY_TA.wav,,596c1af50e679d0001faca67,2021-07-19_20h20.16.629,Agingstudy,2020.2.10,Win32,60,,,,,,,,,,,,,,,,,E,,,,,,,,,,,,,,,1,1,1.2871,0,40,40,40,1,1,OLD,OLD,,,,,,,,
,,,,,,,,,,,,,,,,TestWords/RAY_PA_TI.wav,,596c1af50e679d0001faca67,2021-07-19_20h20.16.629,Agingstudy,2020.2.10,Win32,60,,,,,,,,,,,,,,,,,E,,,,,,,,,,,,,,,1,1,0.9479,0,41,41,41,1,1,OLD,OLD,,,,,,,,
,,,,,,,,,,,,,,,,TestWords/PU_DAY_MO.wav,,596c1af50e679d0001faca67,2021-07-19_20h20.16.629,Agingstudy,2020.2.10,Win32,60,,,,,,,,,,,,,,,,,E,,,,,,,,,,,,,,,1,0,1.3386,0,42,42,42,1,2,NEW,SIMILAR,,,,,,,,
,,,,,,,,,,,,,,,,TestWords/GA_MU_ZI.wav,,596c1af50e679d0001faca67,2021-07-19_20h20.16.629,Agingstudy,2020.2.10,Win32,60,,,,,,,,,,,,,,,,,E,,,,,,,,,,,,,,,1,1,1.2551,0,43,43,43,1,1,OLD,OLD,,,,,,,,
,,,,,,,,,,,,,,,,TestWords/DAI_RU_CHI.wav,,596c1af50e679d0001faca67,2021-07-19_20h20.16.629,Agingstudy,2020.2.10,Win32,60,,,,,,,,,,,,,,,,,E,,,,,,,,,,,,,,,1,1,1.0513,0,44,44,44,1,1,OLD,OLD,,,,,,,,
,,,,,,,,,,,,,,,,TestWords/GI_TAI_SA.wav,,596c1af50e679d0001faca67,2021-07-19_20h20.16.629,Agingstudy,2020.2.10,Win32,60,,,,,,,,,,,,,,,,,E,,,,,,,,,,,,,,,1,0,1.234,0,45,45,45,1,2,NEW,SIMILAR,,,,,,,,
,,,,,,,,,,,,,,,,TestWords/KO_SU_FAI.wav,,596c1af50e679d0001faca67,2021-07-19_20h20.16.629,Agingstudy,2020.2.10,Win32,60,,,,,,,,,,,,,,,,,E,,,,,,,,,,,,,,,2,0,1.6176,0,46,46,46,1,1,OLD,OLD,,,,,,,,
,,,,,,,,,,,,,,,,TestWords/WAI_RO_JU.wav,,596c1af50e679d0001faca67,2021-07-19_20h20.16.629,Agingstudy,2020.2.10,Win32,60,,,,,,,,,,,,,,,,,E,,,,,,,,,,,,,,,2,1,1.8676,0,47,47,47,1,2,NEW,NEW,,,,,,,,
,,,,,,,,,,,,,,,,TestWords/KAI_LAY_TA.wav,,596c1af50e679d0001faca67,2021-07-19_20h20.16.629,Agingstudy,2020.2.10,Win32,60,,,,,,,,,,,,,,,,,E,,,,,,,,,,,,,,,1,1,1.0845,0,48,48,48,1,1,OLD,OLD,,,,,,,,
,,,,,,,,,,,,,,,,TestWords/DAI_RU_CHI.wav,,596c1af50e679d0001faca67,2021-07-19_20h20.16.629,Agingstudy,2020.2.10,Win32,60,,,,,,,,,,,,,,,,,E,,,,,,,,,,,,,,,1,1,0.9014,0,49,49,49,1,1,OLD,OLD,,,,,,,,
,,,,,,,,,,,,,,,,TestWords/RAY_PA_TI.wav,,596c1af50e679d0001faca67,2021-07-19_20h20.16.629,Agingstudy,2020.2.10,Win32,60,,,,,,,,,,,,,,,,,E,,,,,,,,,,,,,,,1,1,1.068,0,50,50,50,1,1,OLD,OLD,,,,,,,,
,,,,,,,,,,,,,,,,TestWords/SA_TAI_GI.wav,,596c1af50e679d0001faca67,2021-07-19_20h20.16.629,Agingstudy,2020.2.10,Win32,60,,,,,,,,,,,,,,,,,E,,,,,,,,,,,,,,,1,0,1.8678,0,51,51,51,1,2,NEW,SIMILAR,,,,,,,,
,,,,,,,,,,,,,,,,TestWords/KO_SU_FAI.wav,,596c1af50e679d0001faca67,2021-07-19_20h20.16.629,Agingstudy,2020.2.10,Win32,60,,,,,,,,,,,,,,,,,E,,,,,,,,,,,,,,,2,0,1.1346,0,52,52,52,1,1,OLD,OLD,,,,,,,,
,,,,,,,,,,,,,,,,TestWords/PU_MO_DAY.wav,,596c1af50e679d0001faca67,2021-07-19_20h20.16.629,Agingstudy,2020.2.10,Win32,60,,,,,,,,,,,,,,,,,E,,,,,,,,,,,,,,,2,1,1.2842,0,53,53,53,1,2,NEW,SIMILAR,,,,,,,,
,,,,,,,,,,,,,,,,TestWords/GA_MU_ZI.wav,,596c1af50e679d0001faca67,2021-07-19_20h20.16.629,Agingstudy,2020.2.10,Win32,60,,,,,,,,,,,,,,,,,E,,,,,,,,,,,,,,,1,1,0.9362,0,54,54,54,1,1,OLD,OLD,,,,,,,,
,,,,,,,,,,,,,,,,TestWords/KAI_LAY_TA.wav,,596c1af50e679d0001faca67,2021-07-19_20h20.16.629,Agingstudy,2020.2.10,Win32,60,,,,,,,,,,,,,,,,,E,,,,,,,,,,,,,,,1,1,1.0129,0,55,55,55,1,1,OLD,OLD,,,,,,,,
,,,,,,,,,,,,,,,,TestWords/SA_GI_TAI.wav,,596c1af50e679d0001faca67,2021-07-19_20h20.16.629,Agingstudy,2020.2.10,Win32,60,,,,,,,,,,,,,,,,,E,,,,,,,,,,,,,,,1,0,2.5856,0,56,56,56,1,2,NEW,SIMILAR,,,,,,,,
,,,,,,,,,,,,,,,,TestWords/RAY_PA_TI.wav,,596c1af50e679d0001faca67,2021-07-19_20h20.16.629,Agingstudy,2020.2.10,Win32,60,,,,,,,,,,,,,,,,,E,,,,,,,,,,,,,,,1,1,0.9453,0,57,57,57,1,1,OLD,OLD,,,,,,,,
,,,,,,,,,,,,,,,,TestWords/DAI_RU_CHI.wav,,596c1af50e679d0001faca67,2021-07-19_20h20.16.629,Agingstudy,2020.2.10,Win32,60,,,,,,,,,,,,,,,,,E,,,,,,,,,,,,,,,1,1,0.9388,0,58,58,58,1,1,OLD,OLD,,,,,,,,
,,,,,,,,,,,,,,,,TestWords/KO_SU_FAI.wav,,596c1af50e679d0001faca67,2021-07-19_20h20.16.629,Agingstudy,2020.2.10,Win32,60,,,,,,,,,,,,,,,,,E,,,,,,,,,,,,,,,2,0,3.4364,0,59,59,59,1,1,OLD,OLD,,,,,,,,
,,,,,,,,,,,,,,,,TestWords/ZO_RAI_FU.wav,,596c1af50e679d0001faca67,2021-07-19_20h20.16.629,Agingstudy,2020.2.10,Win32,60,,,,,,,,,,,,,,,,,E,,,,,,,,,,,,,,,2,1,1.4095,0,60,60,60,1,2,NEW,NEW,,,,,,,,
,,,,,,,,,,,,,,,,TestWords/KAI_LAY_TA.wav,,596c1af50e679d0001faca67,2021-07-19_20h20.16.629,Agingstudy,2020.2.10,Win32,60,,,,,,,,,,,,,,,,,E,,,,,,,,,,,,,,,1,1,0.9758,0,61,61,61,1,1,OLD,OLD,,,,,,,,
,,,,,,,,,,,,,,,,TestWords/GA_MU_ZI.wav,,596c1af50e679d0001faca67,2021-07-19_20h20.16.629,Agingstudy,2020.2.10,Win32,60,,,,,,,,,,,,,,,,,E,,,,,,,,,,,,,,,1,1,0.9353,0,62,62,62,1,1,OLD,OLD,,,,,,,,
,,,,,,,,,,,,,,,,TestWords/TAI_GI_SA.wav,,596c1af50e679d0001faca67,2021-07-19_20h20.16.629,Agingstudy,2020.2.10,Win32,60,,,,,,,,,,,,,,,,,E,,,,,,,,,,,,,,,1,0,0.9974,0,63,63,63,1,2,NEW,SIMILAR,,,,,,,,
,,,,,,,,,,,,,,,,TestWords/RAY_PA_TI.wav,,596c1af50e679d0001faca67,2021-07-19_20h20.16.629,Agingstudy,2020.2.10,Win32,60,,,,,,,,,,,,,,,,,E,,,,,,,,,,,,,,,1,1,0.9673,0,64,64,64,1,1,OLD,OLD,,,,,,,,
,,,,,,,,,,,,,,,,TestWords/DAY_PU_MO.wav,,596c1af50e679d0001faca67,2021-07-19_20h20.16.629,Agingstudy,2020.2.10,Win32,60,,,,,,,,,,,,,,,,,E,,,,,,,,,,,,,,,1,0,1.7531,0,65,65,65,1,2,NEW,SIMILAR,,,,,,,,
,,,,,,,,,,,,,,,,TestWords/KO_SU_FAI.wav,,596c1af50e679d0001faca67,2021-07-19_20h20.16.629,Agingstudy,2020.2.10,Win32,60,,,,,,,,,,,,,,,,,E,,,,,,,,,,,,,,,2,0,1.7886,0,66,66,66,1,1,OLD,OLD,,,,,,,,
,,,,,,,,,,,,,,,,TestWords/DAI_RU_CHI.wav,,596c1af50e679d0001faca67,2021-07-19_20h20.16.629,Agingstudy,2020.2.10,Win32,60,,,,,,,,,,,,,,,,,E,,,,,,,,,,,,,,,1,1,0.4343,0,67,67,67,1,1,OLD,OLD,,,,,,,,
,,,,,,,,,,,,,,,,TestWords/KAI_LAY_TA.wav,,596c1af50e679d0001faca67,2021-07-19_20h20.16.629,Agingstudy,2020.2.10,Win32,60,,,,,,,,,,,,,,,,,E,,,,,,,,,,,,,,,1,1,0.4236,0,68,68,68,1,1,OLD,OLD,,,,,,,,
,,,,,,,,,,,,,,,,TestWords/SI_VAI_CHU.wav,,596c1af50e679d0001faca67,2021-07-19_20h20.16.629,Agingstudy,2020.2.10,Win32,60,,,,,,,,,,,,,,,,,E,,,,,,,,,,,,,,,2,1,1.5255,0,69,69,69,1,2,NEW,NEW,,,,,,,,
,,,,,,,,,,,,,,,,TestWords/GA_MU_ZI.wav,,596c1af50e679d0001faca67,2021-07-19_20h20.16.629,Agingstudy,2020.2.10,Win32,60,,,,,,,,,,,,,,,,,E,,,,,,,,,,,,,,,1,1,0.2952,0,70,70,70,1,1,OLD,OLD,,,,,,,,
,,,,,,,,,,,,,,,,TestWords/KO_SU_FAI.wav,,596c1af50e679d0001faca67,2021-07-19_20h20.16.629,Agingstudy,2020.2.10,Win32,60,,,,,,,,,,,,,,,,,E,,,,,,,,,,,,,,,1,1,0.7286,0,71,71,71,1,1,OLD,OLD,,,,,,,,
,,,,,,,,,,,,,,,,TestWords/RAI_FU_ZO.wav,,596c1af50e679d0001faca67,2021-07-19_20h20.16.629,Agingstudy,2020.2.10,Win32,60,,,,,,,,,,,,,,,,,E,,,,,,,,,,,,,,,2,1,0.9067,0,72,72,72,1,2,NEW,SIMILAR,,,,,,,,
,,,,,,,,,,,,,,,,TestWords/KAI_LAY_TA.wav,,596c1af50e679d0001faca67,2021-07-19_20h20.16.629,Agingstudy,2020.2.10,Win32,60,,,,,,,,,,,,,,,,,E,,,,,,,,,,,,,,,1,1,0.4514,0,73,73,73,1,1,OLD,OLD,,,,,,,,
,,,,,,,,,,,,,,,,TestWords/RAY_PA_TI.wav,,596c1af50e679d0001faca67,2021-07-19_20h20.16.629,Agingstudy,2020.2.10,Win32,60,,,,,,,,,,,,,,,,,E,,,,,,,,,,,,,,,1,1,0.6799,0,74,74,74,1,1,OLD,OLD,,,,,,,,
,,,,,,,,,,,,,,,,TestWords/DAI_RU_CHI.wav,,596c1af50e679d0001faca67,2021-07-19_20h20.16.629,Agingstudy,2020.2.10,Win32,60,,,,,,,,,,,,,,,,,E,,,,,,,,,,,,,,,1,1,1.2382,0,75,75,75,1,1,OLD,OLD,,,,,,,,
,,,,,,,,,,,,,,,,TestWords/MO_PU_DAY.wav,,596c1af50e679d0001faca67,2021-07-19_20h20.16.629,Agingstudy,2020.2.10,Win32,60,,,,,,,,,,,,,,,,,E,,,,,,,,,,,,,,,1,0,1.1512,0,76,76,76,1,2,NEW,SIMILAR,,,,,,,,
,,,,,,,,,,,,,,,,TestWords/GA_MU_ZI.wav,,596c1af50e679d0001faca67,2021-07-19_20h20.16.629,Agingstudy,2020.2.10,Win32,60,,,,,,,,,,,,,,,,,E,,,,,,,,,,,,,,,1,1,1.2622,0,77,77,77,1,1,OLD,OLD,,,,,,,,
,,,,,,,,,,,,,,,,TestWords/KO_SU_FAI.wav,,596c1af50e679d0001faca67,2021-07-19_20h20.16.629,Agingstudy,2020.2.10,Win32,60,,,,,,,,,,,,,,,,,E,,,,,,,,,,,,,,,2,0,1.5908,0,78,78,78,1,1,OLD,OLD,,,,,,,,
,,,,,,,,,,,,,,,,TestWords/NO_WA_BAY.wav,,596c1af50e679d0001faca67,2021-07-19_20h20.16.629,Agingstudy,2020.2.10,Win32,60,,,,,,,,,,,,,,,,,E,,,,,,,,,,,,,,,2,1,1.2863,0,79,79,79,1,2,NEW,NEW,,,,,,,,
,,,,,,,,,,,,,,,,TestWords/KAI_LAY_TA.wav,,596c1af50e679d0001faca67,2021-07-19_20h20.16.629,Agingstudy,2020.2.10,Win32,60,,,,,,,,,,,,,,,,,E,,,,,,,,,,,,,,,1,1,0.8042,0,80,80,80,1,1,OLD,OLD,,,,,,,,
,,,,,,,,,,,,,,,,TestWords/RAY_PA_TI.wav,,596c1af50e679d0001faca67,2021-07-19_20h20.16.629,Agingstudy,2020.2.10,Win32,60,,,,,,,,,,,,,,,,,E,,,,,,,,,,,,,,,1,1,0.5666,0,81,81,81,1,1,OLD,OLD,,,,,,,,
,,,,,,,,,,,,,,,,TestWords/RAI_ZO_FU.wav,,596c1af50e679d0001faca67,2021-07-19_20h20.16.629,Agingstudy,2020.2.10,Win32,60,,,,,,,,,,,,,,,,,E,,,,,,,,,,,,,,,2,1,2.8079,0,82,82,82,1,2,NEW,SIMILAR,,,,,,,,
,,,,,,,,,,,,,,,,TestWords/DAI_RU_CHI.wav,,596c1af50e679d0001faca67,2021-07-19_20h20.16.629,Agingstudy,2020.2.10,Win32,60,,,,,,,,,,,,,,,,,E,,,,,,,,,,,,,,,1,1,0.3724,0,83,83,83,1,1,OLD,OLD,,,,,,,,
,,,,,,,,,,,,,,,,TestWords/HA_SI_JAI.wav,,596c1af50e679d0001faca67,2021-07-19_20h20.16.629,Agingstudy,2020.2.10,Win32,60,,,,,,,,,,,,,,,,,E,,,,,,,,,,,,,,,2,1,1.8196,0,84,84,84,1,2,NEW,NEW,,,,,,,,
,,,,,,,,,,,,,,,,TestWords/KO_SU_FAI.wav,,596c1af50e679d0001faca67,2021-07-19_20h20.16.629,Agingstudy,2020.2.10,Win32,60,,,,,,,,,,,,,,,,,E,,,,,,,,,,,,,,,1,1,0.9165,0,85,85,85,1,1,OLD,OLD,,,,,,,,
,,,,,,,,,,,,,,,,TestWords/KAI_LAY_TA.wav,,596c1af50e679d0001faca67,2021-07-19_20h20.16.629,Agingstudy,2020.2.10,Win32,60,,,,,,,,,,,,,,,,,E,,,,,,,,,,,,,,,1,1,0.5748,0,86,86,86,1,1,OLD,OLD,,,,,,,,
,,,,,,,,,,,,,,,,TestWords/GA_MU_ZI.wav,,596c1af50e679d0001faca67,2021-07-19_20h20.16.629,Agingstudy,2020.2.10,Win32,60,,,,,,,,,,,,,,,,,E,,,,,,,,,,,,,,,1,1,0.6174,0,87,87,87,1,1,OLD,OLD,,,,,,,,
,,,,,,,,,,,,,,,,TestWords/FU_ZO_RAI.wav,,596c1af50e679d0001faca67,2021-07-19_20h20.16.629,Agingstudy,2020.2.10,Win32,60,,,,,,,,,,,,,,,,,E,,,,,,,,,,,,,,,1,0,0.8932,0,88,88,88,1,2,NEW,SIMILAR,,,,,,,,
,,,,,,,,,,,,,,,,TestWords/KO_SU_FAI.wav,,596c1af50e679d0001faca67,2021-07-19_20h20.16.629,Agingstudy,2020.2.10,Win32,60,,,,,,,,,,,,,,,,,E,,,,,,,,,,,,,,,1,1,1.2028,0,89,89,89,1,1,OLD,OLD,,,,,,,,
,,,,,,,,,,,,,,,,TestWords/KAI_LAY_TA.wav,,596c1af50e679d0001faca67,2021-07-19_20h20.16.629,Agingstudy,2020.2.10,Win32,60,,,,,,,,,,,,,,,,,E,,,,,,,,,,,,,,,1,1,0.6203,0,90,90,90,1,1,OLD,OLD,,,,,,,,
,,,,,,,,,,,,,,,,TestWords/DAI_RU_CHI.wav,,596c1af50e679d0001faca67,2021-07-19_20h20.16.629,Agingstudy,2020.2.10,Win32,60,,,,,,,,,,,,,,,,,E,,,,,,,,,,,,,,,1,1,0.9221,0,91,91,91,1,1,OLD,OLD,,,,,,,,
,,,,,,,,,,,,,,,,TestWords/HI_NAY_VA.wav,,596c1af50e679d0001faca67,2021-07-19_20h20.16.629,Agingstudy,2020.2.10,Win32,60,,,,,,,,,,,,,,,,,E,,,,,,,,,,,,,,,2,1,0.5238,0,92,92,92,1,2,NEW,NEW,,,,,,,,
,,,,,,,,,,,,,,,,TestWords/GU_CHAI_PI.wav,,596c1af50e679d0001faca67,2021-07-19_20h20.16.629,Agingstudy,2020.2.10,Win32,60,,,,,,,,,,,,,,,,,E,,,,,,,,,,,,,,,2,1,0.9345,0,93,93,93,1,2,NEW,NEW,,,,,,,,
,,,,,,,,,,,,,,,,TestWords/FU_RAI_ZO.wav,,596c1af50e679d0001faca67,2021-07-19_20h20.16.629,Agingstudy,2020.2.10,Win32,60,,,,,,,,,,,,,,,,,E,,,,,,,,,,,,,,,2,1,1.1507,0,94,94,94,1,2,NEW,SIMILAR,,,,,,,,
,,,,,,,,,,,,,,,,TestWords/KO_SU_FAI.wav,,596c1af50e679d0001faca67,2021-07-19_20h20.16.629,Agingstudy,2020.2.10,Win32,60,,,,,,,,,,,,,,,,,E,,,,,,,,,,,,,,,1,1,0.6787,0,95,95,95,1,1,OLD,OLD,,,,,,,,
,,,,,,,,,,,,,,,,TestWords/PAI_LU_WA.wav,,596c1af50e679d0001faca67,2021-07-19_20h20.16.629,Agingstudy,2020.2.10,Win32,60,,,,,,,,,,,,,,,,,E,,,,,,,,,,,,,,,2,1,0.7445,0,96,96,96,1,2,NEW,NEW,,,,,,,,
,,,,,,,,,,,,,,,,TestWords/DAI_RU_CHI.wav,,596c1af50e679d0001faca67,2021-07-19_20h20.16.629,Agingstudy,2020.2.10,Win32,60,,,,,,,,,,,,,,,,,E,,,,,,,,,,,,,,,1,1,0.241,0,97,97,97,1,1,OLD,OLD,,,,,,,,
,,,,,,,,,,,,,,,,TestWords/FI_GU_CHA.wav,,596c1af50e679d0001faca67,2021-07-19_20h20.16.629,Agingstudy,2020.2.10,Win32,60,,,,,,,,,,,,,,,,,E,,,,,,,,,,,,,,,1,0,1.5844,0,98,98,98,1,2,NEW,NEW,,,,,,,,
,,,,,,,,,,,,,,,,TestWords/ZO_FU_RAI.wav,,596c1af50e679d0001faca67,2021-07-19_20h20.16.629,Agingstudy,2020.2.10,Win32,60,,,,,,,,,,,,,,,,,E,,,,,,,,,,,,,,,1,0,0.8671,0,99,99,99,1,2,NEW,SIMILAR,,,,,,,,
,,,,,,,,,,,,,,,,,,596c1af50e679d0001faca67,2021-07-19_20h20.16.629,Agingstudy,2020.2.10,Win32,60,,,,,,,,,,,,,,,,,,,,,,,,,,,,,,,,,,,,,,,,,,,0,0,0,0,1,,,
,,,,,,,,,,,,,,,,,,596c1af50e679d0001faca67,2021-07-19_20h20.16.629,Agingstudy,2020.2.10,Win32,60,,,,,,,,,,,,,,,,,,,,,,,,,,,,,,,,,,,,,,,,,,,,,,,,return,13.5753,
