Welcome0Continue.keys,Welcome0Continue.rt,SoundCheckBegin.keys,SoundCheckBegin.rt,SoundCheckEndKey.keys,SoundCheckEndKey.rt,HeadphoneContinueKey.keys,HeadphoneContinueKey.rt,CheckResp.keys,CheckResp.corr,CheckResp.rt,HeadphoneLoop.thisRepN,HeadphoneLoop.thisTrialN,HeadphoneLoop.thisN,HeadphoneLoop.thisIndex,HeadphoneLoop.ran,File,Correct,participant,date,expName,psychopyVersion,OS,frameRate,ContinueKey8.keys,ContinueKey8.rt,MSTWelcomeContKey.keys,MSTWelcomeContKey.rt,Condition,MSTTrainIntroKey.keys,MSTTrainIntroKey.rt,MSTTrainKeys.keys,MSTTrainKeys.corr,MSTTrainKeys.rt,MSTTrainLoop.thisRepN,MSTTrainLoop.thisTrialN,MSTTrainLoop.thisN,MSTTrainLoop.thisIndex,MSTTrainLoop.ran,SoundFile,Type,MSTTestBeginKey.keys,MSTTestBeginKey.rt,MST_resp.keys,MST_resp.corr,MST_resp.rt,MSTPlayLoop.thisRepN,MSTPlayLoop.thisTrialN,MSTPlayLoop.thisN,MSTPlayLoop.thisIndex,MSTPlayLoop.ran,WordCorrect,Correct_type,WordType,MSTLoop.thisRepN,MSTLoop.thisTrialN,MSTLoop.thisN,MSTLoop.thisIndex,MSTLoop.ran,EndAllKey.keys,EndAllKey.rt,FeedbackResp.text
space,9.3068,space,5.7006,space,11.2727,space,21.9228,1,0,6.8869,0,0,0,2,1,Headphone/t2_1.wav,2,5991efc7b83f800001a5e431,2021-08-02_00h52.47.496,Agingstudy,2020.2.10,MacIntel,60,,,,,,,,,,,,,,,,,,,,,,,,,,,,,,,,,,,,,,
,,,,,,,,2,1,2.0631,0,1,1,3,1,Headphone/t2_2.wav,2,5991efc7b83f800001a5e431,2021-08-02_00h52.47.496,Agingstudy,2020.2.10,MacIntel,60,,,,,,,,,,,,,,,,,,,,,,,,,,,,,,,,,,,,,,
,,,,,,,,1,1,1.3989,0,2,2,0,1,Headphone/t1_1.wav,1,5991efc7b83f800001a5e431,2021-08-02_00h52.47.496,Agingstudy,2020.2.10,MacIntel,60,,,,,,,,,,,,,,,,,,,,,,,,,,,,,,,,,,,,,,
,,,,,,,,3,1,3.3764,0,3,3,5,1,Headphone/t3_2.wav,3,5991efc7b83f800001a5e431,2021-08-02_00h52.47.496,Agingstudy,2020.2.10,MacIntel,60,,,,,,,,,,,,,,,,,,,,,,,,,,,,,,,,,,,,,,
,,,,,,,,1,1,2.3341,0,4,4,1,1,Headphone/t1_2.wav,1,5991efc7b83f800001a5e431,2021-08-02_00h52.47.496,Agingstudy,2020.2.10,MacIntel,60,,,,,,,,,,,,,,,,,,,,,,,,,,,,,,,,,,,,,,
,,,,,,,,3,1,1.3652,0,5,5,4,1,Headphone/t3_1.wav,3,5991efc7b83f800001a5e431,2021-08-02_00h52.47.496,Agingstudy,2020.2.10,MacIntel,60,,,,,,,,,,,,,,,,,,,,,,,,,,,,,,,,,,,,,,
,,,,,,,,,,,,,,,,,2,5991efc7b83f800001a5e431,2021-08-02_00h52.47.496,Agingstudy,2020.2.10,MacIntel,60,space,35.6902,space,8.7136,1,space,5.4209,2,1,8.3745,0,0,0,0,1,Training/FO_YI_LAY.wav,NEW,,,,,,,,,,,,,,,,,,,,,
,,,,,,,,,,,,,,,,,1,5991efc7b83f800001a5e431,2021-08-02_00h52.47.496,Agingstudy,2020.2.10,MacIntel,60,,,,,,,,1,1,5.5075,0,1,1,1,1,Training/FO_YI_LAY.wav,OLD,,,,,,,,,,,,,,,,,,,,,
,,,,,,,,,,,,,,,,,2,5991efc7b83f800001a5e431,2021-08-02_00h52.47.496,Agingstudy,2020.2.10,MacIntel,60,,,,,,,,2,1,3.89,0,2,2,2,1,Training/YO_BU_JAY.wav,NEW,,,,,,,,,,,,,,,,,,,,,
,,,,,,,,,,,,,,,,,2,5991efc7b83f800001a5e431,2021-08-02_00h52.47.496,Agingstudy,2020.2.10,MacIntel,60,,,,,,,,2,1,6.6846,0,3,3,3,1,Training/JAY_YO_BU.wav,SIMILAR,,,,,,,,,,,,,,,,,,,,,
,,,,,,,,,,,,,,,,,1,5991efc7b83f800001a5e431,2021-08-02_00h52.47.496,Agingstudy,2020.2.10,MacIntel,60,,,,,,,,1,1,5.022,0,4,4,4,1,Training/FO_YI_LAY.wav,OLD,,,,,,,,,,,,,,,,,,,,,
,,,,,,,,,,,,,,,,TestWords/HA_SI_JAI.wav,,5991efc7b83f800001a5e431,2021-08-02_00h52.47.496,Agingstudy,2020.2.10,MacIntel,60,,,,,A,,,,,,,,,,,,,space,8.1832,2,1,5.3835,0,0,0,0,1,2,NEW,NEW,,,,,,,,
,,,,,,,,,,,,,,,,TestWords/KO_SU_FAI.wav,,5991efc7b83f800001a5e431,2021-08-02_00h52.47.496,Agingstudy,2020.2.10,MacIntel,60,,,,,A,,,,,,,,,,,,,,,2,1,2.4455,0,1,1,1,1,2,NEW,NEW,,,,,,,,
,,,,,,,,,,,,,,,,TestWords/TAI_GI_SA.wav,,5991efc7b83f800001a5e431,2021-08-02_00h52.47.496,Agingstudy,2020.2.10,MacIntel,60,,,,,A,,,,,,,,,,,,,,,2,1,1.4304,0,2,2,2,1,2,NEW,NEW,,,,,,,,
,,,,,,,,,,,,,,,,TestWords/KAI_LAY_TA.wav,,5991efc7b83f800001a5e431,2021-08-02_00h52.47.496,Agingstudy,2020.2.10,MacIntel,60,,,,,A,,,,,,,,,,,,,,,2,1,1.6296,0,3,3,3,1,2,NEW,NEW,,,,,,,,
,,,,,,,,,,,,,,,,TestWords/RAY_PA_TI.wav,,5991efc7b83f800001a5e431,2021-08-02_00h52.47.496,Agingstudy,2020.2.10,MacIntel,60,,,,,A,,,,,,,,,,,,,,,2,1,1.9127,0,4,4,4,1,2,NEW,NEW,,,,,,,,
,,,,,,,,,,,,,,,,TestWords/KO_SU_FAI.wav,,5991efc7b83f800001a5e431,2021-08-02_00h52.47.496,Agingstudy,2020.2.10,MacIntel,60,,,,,A,,,,,,,,,,,,,,,1,1,1.148,0,5,5,5,1,1,OLD,OLD,,,,,,,,
,,,,,,,,,,,,,,,,TestWords/TAI_SA_GI.wav,,5991efc7b83f800001a5e431,2021-08-02_00h52.47.496,Agingstudy,2020.2.10,MacIntel,60,,,,,A,,,,,,,,,,,,,,,1,0,1.0336,0,6,6,6,1,2,NEW,SIMILAR,,,,,,,,
,,,,,,,,,,,,,,,,TestWords/KAI_LAY_TA.wav,,5991efc7b83f800001a5e431,2021-08-02_00h52.47.496,Agingstudy,2020.2.10,MacIntel,60,,,,,A,,,,,,,,,,,,,,,1,1,1.1978,0,7,7,7,1,1,OLD,OLD,,,,,,,,
,,,,,,,,,,,,,,,,TestWords/NA_WAI_VU.wav,,5991efc7b83f800001a5e431,2021-08-02_00h52.47.496,Agingstudy,2020.2.10,MacIntel,60,,,,,A,,,,,,,,,,,,,,,2,1,1.7797,0,8,8,8,1,2,NEW,NEW,,,,,,,,
,,,,,,,,,,,,,,,,TestWords/KO_SU_FAI.wav,,5991efc7b83f800001a5e431,2021-08-02_00h52.47.496,Agingstudy,2020.2.10,MacIntel,60,,,,,A,,,,,,,,,,,,,,,2,0,4.1241,0,9,9,9,1,1,OLD,OLD,,,,,,,,
,,,,,,,,,,,,,,,,TestWords/RAY_PA_TI.wav,,5991efc7b83f800001a5e431,2021-08-02_00h52.47.496,Agingstudy,2020.2.10,MacIntel,60,,,,,A,,,,,,,,,,,,,,,1,1,1.3305,0,10,10,10,1,1,OLD,OLD,,,,,,,,
,,,,,,,,,,,,,,,,TestWords/GI_SA_TAI.wav,,5991efc7b83f800001a5e431,2021-08-02_00h52.47.496,Agingstudy,2020.2.10,MacIntel,60,,,,,A,,,,,,,,,,,,,,,1,0,1.3309,0,11,11,11,1,2,NEW,SIMILAR,,,,,,,,
,,,,,,,,,,,,,,,,TestWords/WAI_VU_NA.wav,,5991efc7b83f800001a5e431,2021-08-02_00h52.47.496,Agingstudy,2020.2.10,MacIntel,60,,,,,A,,,,,,,,,,,,,,,1,0,0.749,0,12,12,12,1,2,NEW,SIMILAR,,,,,,,,
,,,,,,,,,,,,,,,,TestWords/KAI_LAY_TA.wav,,5991efc7b83f800001a5e431,2021-08-02_00h52.47.496,Agingstudy,2020.2.10,MacIntel,60,,,,,A,,,,,,,,,,,,,,,1,1,0.8496,0,13,13,13,1,1,OLD,OLD,,,,,,,,
,,,,,,,,,,,,,,,,TestWords/SI_VAI_CHU.wav,,5991efc7b83f800001a5e431,2021-08-02_00h52.47.496,Agingstudy,2020.2.10,MacIntel,60,,,,,A,,,,,,,,,,,,,,,2,1,1.1984,0,14,14,14,1,2,NEW,NEW,,,,,,,,
,,,,,,,,,,,,,,,,TestWords/GI_TAI_SA.wav,,5991efc7b83f800001a5e431,2021-08-02_00h52.47.496,Agingstudy,2020.2.10,MacIntel,60,,,,,A,,,,,,,,,,,,,,,2,1,1.2668,0,15,15,15,1,2,NEW,SIMILAR,,,,,,,,
,,,,,,,,,,,,,,,,TestWords/KO_SU_FAI.wav,,5991efc7b83f800001a5e431,2021-08-02_00h52.47.496,Agingstudy,2020.2.10,MacIntel,60,,,,,A,,,,,,,,,,,,,,,1,1,0.7529,0,16,16,16,1,1,OLD,OLD,,,,,,,,
,,,,,,,,,,,,,,,,TestWords/DA_CHU_VAI.wav,,5991efc7b83f800001a5e431,2021-08-02_00h52.47.496,Agingstudy,2020.2.10,MacIntel,60,,,,,A,,,,,,,,,,,,,,,2,1,1.5021,0,17,17,17,1,2,NEW,NEW,,,,,,,,
,,,,,,,,,,,,,,,,TestWords/RAY_PA_TI.wav,,5991efc7b83f800001a5e431,2021-08-02_00h52.47.496,Agingstudy,2020.2.10,MacIntel,60,,,,,A,,,,,,,,,,,,,,,1,1,1.1644,0,18,18,18,1,1,OLD,OLD,,,,,,,,
,,,,,,,,,,,,,,,,TestWords/KAI_LAY_TA.wav,,5991efc7b83f800001a5e431,2021-08-02_00h52.47.496,Agingstudy,2020.2.10,MacIntel,60,,,,,A,,,,,,,,,,,,,,,1,1,1.6539,0,19,19,19,1,1,OLD,OLD,,,,,,,,
,,,,,,,,,,,,,,,,TestWords/WAI_NA_VU.wav,,5991efc7b83f800001a5e431,2021-08-02_00h52.47.496,Agingstudy,2020.2.10,MacIntel,60,,,,,A,,,,,,,,,,,,,,,2,1,1.6797,0,20,20,20,1,2,NEW,SIMILAR,,,,,,,,
,,,,,,,,,,,,,,,,TestWords/KO_SU_FAI.wav,,5991efc7b83f800001a5e431,2021-08-02_00h52.47.496,Agingstudy,2020.2.10,MacIntel,60,,,,,A,,,,,,,,,,,,,,,1,1,0.4992,0,21,21,21,1,1,OLD,OLD,,,,,,,,
,,,,,,,,,,,,,,,,TestWords/SA_TAI_GI.wav,,5991efc7b83f800001a5e431,2021-08-02_00h52.47.496,Agingstudy,2020.2.10,MacIntel,60,,,,,A,,,,,,,,,,,,,,,1,0,0.6657,0,22,22,22,1,2,NEW,SIMILAR,,,,,,,,
,,,,,,,,,,,,,,,,TestWords/RAY_PA_TI.wav,,5991efc7b83f800001a5e431,2021-08-02_00h52.47.496,Agingstudy,2020.2.10,MacIntel,60,,,,,A,,,,,,,,,,,,,,,2,0,0.3832,0,23,23,23,1,1,OLD,OLD,,,,,,,,
,,,,,,,,,,,,,,,,TestWords/VU_NA_WAI.wav,,5991efc7b83f800001a5e431,2021-08-02_00h52.47.496,Agingstudy,2020.2.10,MacIntel,60,,,,,A,,,,,,,,,,,,,,,1,0,0.7821,0,24,24,24,1,2,NEW,SIMILAR,,,,,,,,
,,,,,,,,,,,,,,,,TestWords/KAI_LAY_TA.wav,,5991efc7b83f800001a5e431,2021-08-02_00h52.47.496,Agingstudy,2020.2.10,MacIntel,60,,,,,A,,,,,,,,,,,,,,,1,1,0.6559,0,25,25,25,1,1,OLD,OLD,,,,,,,,
,,,,,,,,,,,,,,,,TestWords/WAI_RO_JU.wav,,5991efc7b83f800001a5e431,2021-08-02_00h52.47.496,Agingstudy,2020.2.10,MacIntel,60,,,,,A,,,,,,,,,,,,,,,1,0,1.0146,0,26,26,26,1,2,NEW,NEW,,,,,,,,
,,,,,,,,,,,,,,,,TestWords/KO_SU_FAI.wav,,5991efc7b83f800001a5e431,2021-08-02_00h52.47.496,Agingstudy,2020.2.10,MacIntel,60,,,,,A,,,,,,,,,,,,,,,1,1,0.4183,0,27,27,27,1,1,OLD,OLD,,,,,,,,
,,,,,,,,,,,,,,,,TestWords/SA_GI_TAI.wav,,5991efc7b83f800001a5e431,2021-08-02_00h52.47.496,Agingstudy,2020.2.10,MacIntel,60,,,,,A,,,,,,,,,,,,,,,1,0,0.2496,0,28,28,28,1,2,NEW,SIMILAR,,,,,,,,
,,,,,,,,,,,,,,,,TestWords/RAY_PA_TI.wav,,5991efc7b83f800001a5e431,2021-08-02_00h52.47.496,Agingstudy,2020.2.10,MacIntel,60,,,,,A,,,,,,,,,,,,,,,1,1,0.667,0,29,29,29,1,1,OLD,OLD,,,,,,,,
,,,,,,,,,,,,,,,,TestWords/GA_MU_ZI.wav,,5991efc7b83f800001a5e431,2021-08-02_00h52.47.496,Agingstudy,2020.2.10,MacIntel,60,,,,,A,,,,,,,,,,,,,,,1,0,1.0164,0,30,30,30,1,2,NEW,NEW,,,,,,,,
,,,,,,,,,,,,,,,,TestWords/KAI_LAY_TA.wav,,5991efc7b83f800001a5e431,2021-08-02_00h52.47.496,Agingstudy,2020.2.10,MacIntel,60,,,,,A,,,,,,,,,,,,,,,1,1,0.6164,0,31,31,31,1,1,OLD,OLD,,,,,,,,
,,,,,,,,,,,,,,,,TestWords/VU_WAI_NA.wav,,5991efc7b83f800001a5e431,2021-08-02_00h52.47.496,Agingstudy,2020.2.10,MacIntel,60,,,,,A,,,,,,,,,,,,,,,1,0,0.4354,0,32,32,32,1,2,NEW,SIMILAR,,,,,,,,
,,,,,,,,,,,,,,,,TestWords/RAY_PA_TI.wav,,5991efc7b83f800001a5e431,2021-08-02_00h52.47.496,Agingstudy,2020.2.10,MacIntel,60,,,,,A,,,,,,,,,,,,,,,1,1,0.7512,0,33,33,33,1,1,OLD,OLD,,,,,,,,
,,,,,,,,,,,,,,,,TestWords/LI_KAY_BA.wav,,5991efc7b83f800001a5e431,2021-08-02_00h52.47.496,Agingstudy,2020.2.10,MacIntel,60,,,,,A,,,,,,,,,,,,,,,2,1,0.832,0,34,34,34,1,2,NEW,NEW,,,,,,,,
,,,,,,,,,,,,,,,,TestWords/HI_NAY_VA.wav,,5991efc7b83f800001a5e431,2021-08-02_00h52.47.496,Agingstudy,2020.2.10,MacIntel,60,,,,,A,,,,,,,,,,,,,,,2,1,0.2681,0,35,35,35,1,2,NEW,NEW,,,,,,,,
,,,,,,,,,,,,,,,,TestWords/KO_SU_FAI.wav,,5991efc7b83f800001a5e431,2021-08-02_00h52.47.496,Agingstudy,2020.2.10,MacIntel,60,,,,,A,,,,,,,,,,,,,,,1,1,0.6323,0,36,36,36,1,1,OLD,OLD,,,,,,,,
,,,,,,,,,,,,,,,,TestWords/NA_VU_WAI.wav,,5991efc7b83f800001a5e431,2021-08-02_00h52.47.496,Agingstudy,2020.2.10,MacIntel,60,,,,,A,,,,,,,,,,,,,,,1,0,1.0547,0,37,37,37,1,2,NEW,SIMILAR,,,,,,,,
,,,,,,,,,,,,,,,,TestWords/GA_MU_ZI.wav,,5991efc7b83f800001a5e431,2021-08-02_00h52.47.496,Agingstudy,2020.2.10,MacIntel,60,,,,,A,,,,,,,,,,,,,,,1,1,1.8792,0,38,38,38,1,1,OLD,OLD,,,,,,,,
,,,,,,,,,,,,,,,,TestWords/KAI_LAY_TA.wav,,5991efc7b83f800001a5e431,2021-08-02_00h52.47.496,Agingstudy,2020.2.10,MacIntel,60,,,,,A,,,,,,,,,,,,,,,1,1,1.1542,0,39,39,39,1,1,OLD,OLD,,,,,,,,
,,,,,,,,,,,,,,,,TestWords/DAI_RU_CHI.wav,,5991efc7b83f800001a5e431,2021-08-02_00h52.47.496,Agingstudy,2020.2.10,MacIntel,60,,,,,A,,,,,,,,,,,,,,,2,1,0.5749,0,40,40,40,1,2,NEW,NEW,,,,,,,,
,,,,,,,,,,,,,,,,TestWords/NU_CHAY_SO.wav,,5991efc7b83f800001a5e431,2021-08-02_00h52.47.496,Agingstudy,2020.2.10,MacIntel,60,,,,,A,,,,,,,,,,,,,,,2,1,0.8991,0,41,41,41,1,2,NEW,NEW,,,,,,,,
,,,,,,,,,,,,,,,,TestWords/RAY_PA_TI.wav,,5991efc7b83f800001a5e431,2021-08-02_00h52.47.496,Agingstudy,2020.2.10,MacIntel,60,,,,,A,,,,,,,,,,,,,,,1,1,0.503,0,42,42,42,1,1,OLD,OLD,,,,,,,,
,,,,,,,,,,,,,,,,TestWords/BA_KAY_LI.wav,,5991efc7b83f800001a5e431,2021-08-02_00h52.47.496,Agingstudy,2020.2.10,MacIntel,60,,,,,A,,,,,,,,,,,,,,,2,1,0.453,0,43,43,43,1,2,NEW,SIMILAR,,,,,,,,
,,,,,,,,,,,,,,,,TestWords/KO_SU_FAI.wav,,5991efc7b83f800001a5e431,2021-08-02_00h52.47.496,Agingstudy,2020.2.10,MacIntel,60,,,,,A,,,,,,,,,,,,,,,1,1,0.8523,0,44,44,44,1,1,OLD,OLD,,,,,,,,
,,,,,,,,,,,,,,,,TestWords/GA_MU_ZI.wav,,5991efc7b83f800001a5e431,2021-08-02_00h52.47.496,Agingstudy,2020.2.10,MacIntel,60,,,,,A,,,,,,,,,,,,,,,2,0,0.7176,0,45,45,45,1,1,OLD,OLD,,,,,,,,
,,,,,,,,,,,,,,,,TestWords/CHU_LA_PAY.wav,,5991efc7b83f800001a5e431,2021-08-02_00h52.47.496,Agingstudy,2020.2.10,MacIntel,60,,,,,A,,,,,,,,,,,,,,,2,1,1.078,0,46,46,46,1,2,NEW,NEW,,,,,,,,
,,,,,,,,,,,,,,,,TestWords/KAI_LAY_TA.wav,,5991efc7b83f800001a5e431,2021-08-02_00h52.47.496,Agingstudy,2020.2.10,MacIntel,60,,,,,A,,,,,,,,,,,,,,,1,1,0.2671,0,47,47,47,1,1,OLD,OLD,,,,,,,,
,,,,,,,,,,,,,,,,TestWords/DAI_RU_CHI.wav,,5991efc7b83f800001a5e431,2021-08-02_00h52.47.496,Agingstudy,2020.2.10,MacIntel,60,,,,,A,,,,,,,,,,,,,,,2,0,1.5039,0,48,48,48,1,1,OLD,OLD,,,,,,,,
,,,,,,,,,,,,,,,,TestWords/KO_SU_FAI.wav,,5991efc7b83f800001a5e431,2021-08-02_00h52.47.496,Agingstudy,2020.2.10,MacIntel,60,,,,,A,,,,,,,,,,,,,,,1,1,2.7167,0,49,49,49,1,1,OLD,OLD,,,,,,,,
,,,,,,,,,,,,,,,,TestWords/KAY_LI_BA.wav,,5991efc7b83f800001a5e431,2021-08-02_00h52.47.496,Agingstudy,2020.2.10,MacIntel,60,,,,,A,,,,,,,,,,,,,,,2,1,0.4663,0,50,50,50,1,2,NEW,SIMILAR,,,,,,,,
,,,,,,,,,,,,,,,,TestWords/RAY_PA_TI.wav,,5991efc7b83f800001a5e431,2021-08-02_00h52.47.496,Agingstudy,2020.2.10,MacIntel,60,,,,,A,,,,,,,,,,,,,,,1,1,0.5491,0,51,51,51,1,1,OLD,OLD,,,,,,,,
,,,,,,,,,,,,,,,,TestWords/KAI_LAY_TA.wav,,5991efc7b83f800001a5e431,2021-08-02_00h52.47.496,Agingstudy,2020.2.10,MacIntel,60,,,,,A,,,,,,,,,,,,,,,1,1,0.6201,0,52,52,52,1,1,OLD,OLD,,,,,,,,
,,,,,,,,,,,,,,,,TestWords/HO_NAY_VA.wav,,5991efc7b83f800001a5e431,2021-08-02_00h52.47.496,Agingstudy,2020.2.10,MacIntel,60,,,,,A,,,,,,,,,,,,,,,2,1,0.6326,0,53,53,53,1,2,NEW,NEW,,,,,,,,
,,,,,,,,,,,,,,,,TestWords/GA_MU_ZI.wav,,5991efc7b83f800001a5e431,2021-08-02_00h52.47.496,Agingstudy,2020.2.10,MacIntel,60,,,,,A,,,,,,,,,,,,,,,1,1,0.4473,0,54,54,54,1,1,OLD,OLD,,,,,,,,
,,,,,,,,,,,,,,,,TestWords/DAI_RU_CHI.wav,,5991efc7b83f800001a5e431,2021-08-02_00h52.47.496,Agingstudy,2020.2.10,MacIntel,60,,,,,A,,,,,,,,,,,,,,,1,1,1.0316,0,55,55,55,1,1,OLD,OLD,,,,,,,,
,,,,,,,,,,,,,,,,TestWords/MO_PU_DAY.wav,,5991efc7b83f800001a5e431,2021-08-02_00h52.47.496,Agingstudy,2020.2.10,MacIntel,60,,,,,A,,,,,,,,,,,,,,,2,1,0.6655,0,56,56,56,1,2,NEW,NEW,,,,,,,,
,,,,,,,,,,,,,,,,TestWords/KO_SU_FAI.wav,,5991efc7b83f800001a5e431,2021-08-02_00h52.47.496,Agingstudy,2020.2.10,MacIntel,60,,,,,A,,,,,,,,,,,,,,,1,1,0.566,0,57,57,57,1,1,OLD,OLD,,,,,,,,
,,,,,,,,,,,,,,,,TestWords/KAY_BA_LI.wav,,5991efc7b83f800001a5e431,2021-08-02_00h52.47.496,Agingstudy,2020.2.10,MacIntel,60,,,,,A,,,,,,,,,,,,,,,2,1,1.1071,0,58,58,58,1,2,NEW,SIMILAR,,,,,,,,
,,,,,,,,,,,,,,,,TestWords/RAY_PA_TI.wav,,5991efc7b83f800001a5e431,2021-08-02_00h52.47.496,Agingstudy,2020.2.10,MacIntel,60,,,,,A,,,,,,,,,,,,,,,1,1,0.4657,0,59,59,59,1,1,OLD,OLD,,,,,,,,
,,,,,,,,,,,,,,,,TestWords/KAI_LAY_TA.wav,,5991efc7b83f800001a5e431,2021-08-02_00h52.47.496,Agingstudy,2020.2.10,MacIntel,60,,,,,A,,,,,,,,,,,,,,,1,1,0.3685,0,60,60,60,1,1,OLD,OLD,,,,,,,,
,,,,,,,,,,,,,,,,TestWords/GA_MU_ZI.wav,,5991efc7b83f800001a5e431,2021-08-02_00h52.47.496,Agingstudy,2020.2.10,MacIntel,60,,,,,A,,,,,,,,,,,,,,,1,1,0.3826,0,61,61,61,1,1,OLD,OLD,,,,,,,,
,,,,,,,,,,,,,,,,TestWords/DAY_PU_MO.wav,,5991efc7b83f800001a5e431,2021-08-02_00h52.47.496,Agingstudy,2020.2.10,MacIntel,60,,,,,A,,,,,,,,,,,,,,,2,1,0.3553,0,62,62,62,1,2,NEW,SIMILAR,,,,,,,,
,,,,,,,,,,,,,,,,TestWords/DAI_RU_CHI.wav,,5991efc7b83f800001a5e431,2021-08-02_00h52.47.496,Agingstudy,2020.2.10,MacIntel,60,,,,,A,,,,,,,,,,,,,,,1,1,0.5016,0,63,63,63,1,1,OLD,OLD,,,,,,,,
,,,,,,,,,,,,,,,,TestWords/LI_BA_KAY.wav,,5991efc7b83f800001a5e431,2021-08-02_00h52.47.496,Agingstudy,2020.2.10,MacIntel,60,,,,,A,,,,,,,,,,,,,,,2,1,0.3165,0,64,64,64,1,2,NEW,SIMILAR,,,,,,,,
,,,,,,,,,,,,,,,,TestWords/KAI_LAY_TA.wav,,5991efc7b83f800001a5e431,2021-08-02_00h52.47.496,Agingstudy,2020.2.10,MacIntel,60,,,,,A,,,,,,,,,,,,,,,1,1,0.2739,0,65,65,65,1,1,OLD,OLD,,,,,,,,
,,,,,,,,,,,,,,,,TestWords/KO_SU_FAI.wav,,5991efc7b83f800001a5e431,2021-08-02_00h52.47.496,Agingstudy,2020.2.10,MacIntel,60,,,,,A,,,,,,,,,,,,,,,2,0,0.6172,0,66,66,66,1,1,OLD,OLD,,,,,,,,
,,,,,,,,,,,,,,,,TestWords/DAY_MO_PU.wav,,5991efc7b83f800001a5e431,2021-08-02_00h52.47.496,Agingstudy,2020.2.10,MacIntel,60,,,,,A,,,,,,,,,,,,,,,2,1,0.5001,0,67,67,67,1,2,NEW,SIMILAR,,,,,,,,
,,,,,,,,,,,,,,,,TestWords/RAY_PA_TI.wav,,5991efc7b83f800001a5e431,2021-08-02_00h52.47.496,Agingstudy,2020.2.10,MacIntel,60,,,,,A,,,,,,,,,,,,,,,1,1,0.2817,0,68,68,68,1,1,OLD,OLD,,,,,,,,
,,,,,,,,,,,,,,,,TestWords/GA_MU_ZI.wav,,5991efc7b83f800001a5e431,2021-08-02_00h52.47.496,Agingstudy,2020.2.10,MacIntel,60,,,,,A,,,,,,,,,,,,,,,1,1,0.3665,0,69,69,69,1,1,OLD,OLD,,,,,,,,
,,,,,,,,,,,,,,,,TestWords/BA_LI_KAY.wav,,5991efc7b83f800001a5e431,2021-08-02_00h52.47.496,Agingstudy,2020.2.10,MacIntel,60,,,,,A,,,,,,,,,,,,,,,2,1,1.7794,0,70,70,70,1,2,NEW,SIMILAR,,,,,,,,
,,,,,,,,,,,,,,,,TestWords/DAI_RU_CHI.wav,,5991efc7b83f800001a5e431,2021-08-02_00h52.47.496,Agingstudy,2020.2.10,MacIntel,60,,,,,A,,,,,,,,,,,,,,,1,1,0.1993,0,71,71,71,1,1,OLD,OLD,,,,,,,,
,,,,,,,,,,,,,,,,TestWords/LU_HAI_BO.wav,,5991efc7b83f800001a5e431,2021-08-02_00h52.47.496,Agingstudy,2020.2.10,MacIntel,60,,,,,A,,,,,,,,,,,,,,,1,0,0.9149,0,72,72,72,1,2,NEW,NEW,,,,,,,,
,,,,,,,,,,,,,,,,TestWords/RAY_PA_TI.wav,,5991efc7b83f800001a5e431,2021-08-02_00h52.47.496,Agingstudy,2020.2.10,MacIntel,60,,,,,A,,,,,,,,,,,,,,,1,1,0.2231,0,73,73,73,1,1,OLD,OLD,,,,,,,,
,,,,,,,,,,,,,,,,TestWords/GA_MU_ZI.wav,,5991efc7b83f800001a5e431,2021-08-02_00h52.47.496,Agingstudy,2020.2.10,MacIntel,60,,,,,A,,,,,,,,,,,,,,,1,1,0.0669,0,74,74,74,1,1,OLD,OLD,,,,,,,,
,,,,,,,,,,,,,,,,TestWords/MO_DAY_PU.wav,,5991efc7b83f800001a5e431,2021-08-02_00h52.47.496,Agingstudy,2020.2.10,MacIntel,60,,,,,A,,,,,,,,,,,,,,,1,0,0.8316,0,75,75,75,1,2,NEW,SIMILAR,,,,,,,,
,,,,,,,,,,,,,,,,TestWords/DAI_RU_CHI.wav,,5991efc7b83f800001a5e431,2021-08-02_00h52.47.496,Agingstudy,2020.2.10,MacIntel,60,,,,,A,,,,,,,,,,,,,,,1,1,0.2169,0,76,76,76,1,1,OLD,OLD,,,,,,,,
,,,,,,,,,,,,,,,,TestWords/ZO_FU_RAI.wav,,5991efc7b83f800001a5e431,2021-08-02_00h52.47.496,Agingstudy,2020.2.10,MacIntel,60,,,,,A,,,,,,,,,,,,,,,1,0,0.4162,0,77,77,77,1,2,NEW,NEW,,,,,,,,
,,,,,,,,,,,,,,,,TestWords/NO_WA_BAY.wav,,5991efc7b83f800001a5e431,2021-08-02_00h52.47.496,Agingstudy,2020.2.10,MacIntel,60,,,,,A,,,,,,,,,,,,,,,1,0,0.1501,0,78,78,78,1,2,NEW,NEW,,,,,,,,
,,,,,,,,,,,,,,,,TestWords/GA_MU_ZI.wav,,5991efc7b83f800001a5e431,2021-08-02_00h52.47.496,Agingstudy,2020.2.10,MacIntel,60,,,,,A,,,,,,,,,,,,,,,1,1,0.3546,0,79,79,79,1,1,OLD,OLD,,,,,,,,
,,,,,,,,,,,,,,,,TestWords/DAI_RU_CHI.wav,,5991efc7b83f800001a5e431,2021-08-02_00h52.47.496,Agingstudy,2020.2.10,MacIntel,60,,,,,A,,,,,,,,,,,,,,,1,1,0.2668,0,80,80,80,1,1,OLD,OLD,,,,,,,,
,,,,,,,,,,,,,,,,TestWords/PU_DAY_MO.wav,,5991efc7b83f800001a5e431,2021-08-02_00h52.47.496,Agingstudy,2020.2.10,MacIntel,60,,,,,A,,,,,,,,,,,,,,,2,1,0.9817,0,81,81,81,1,2,NEW,SIMILAR,,,,,,,,
,,,,,,,,,,,,,,,,TestWords/RAI_ZO_FU.wav,,5991efc7b83f800001a5e431,2021-08-02_00h52.47.496,Agingstudy,2020.2.10,MacIntel,60,,,,,A,,,,,,,,,,,,,,,2,1,0.581,0,82,82,82,1,2,NEW,SIMILAR,,,,,,,,
,,,,,,,,,,,,,,,,TestWords/GA_MU_ZI.wav,,5991efc7b83f800001a5e431,2021-08-02_00h52.47.496,Agingstudy,2020.2.10,MacIntel,60,,,,,A,,,,,,,,,,,,,,,1,1,0.1558,0,83,83,83,1,1,OLD,OLD,,,,,,,,
,,,,,,,,,,,,,,,,TestWords/PAI_LU_WA.wav,,5991efc7b83f800001a5e431,2021-08-02_00h52.47.496,Agingstudy,2020.2.10,MacIntel,60,,,,,A,,,,,,,,,,,,,,,2,1,0.6546,0,84,84,84,1,2,NEW,NEW,,,,,,,,
,,,,,,,,,,,,,,,,TestWords/PU_MO_DAY.wav,,5991efc7b83f800001a5e431,2021-08-02_00h52.47.496,Agingstudy,2020.2.10,MacIntel,60,,,,,A,,,,,,,,,,,,,,,2,1,0.4492,0,85,85,85,1,2,NEW,SIMILAR,,,,,,,,
,,,,,,,,,,,,,,,,TestWords/DAI_RU_CHI.wav,,5991efc7b83f800001a5e431,2021-08-02_00h52.47.496,Agingstudy,2020.2.10,MacIntel,60,,,,,A,,,,,,,,,,,,,,,1,1,0.3828,0,86,86,86,1,1,OLD,OLD,,,,,,,,
,,,,,,,,,,,,,,,,TestWords/ZO_RAI_FU.wav,,5991efc7b83f800001a5e431,2021-08-02_00h52.47.496,Agingstudy,2020.2.10,MacIntel,60,,,,,A,,,,,,,,,,,,,,,1,0,0.5824,0,87,87,87,1,2,NEW,SIMILAR,,,,,,,,
,,,,,,,,,,,,,,,,TestWords/FI_GU_CHA.wav,,5991efc7b83f800001a5e431,2021-08-02_00h52.47.496,Agingstudy,2020.2.10,MacIntel,60,,,,,A,,,,,,,,,,,,,,,2,1,0.3237,0,88,88,88,1,2,NEW,NEW,,,,,,,,
,,,,,,,,,,,,,,,,TestWords/GA_MU_ZI.wav,,5991efc7b83f800001a5e431,2021-08-02_00h52.47.496,Agingstudy,2020.2.10,MacIntel,60,,,,,A,,,,,,,,,,,,,,,1,1,0.0006,0,89,89,89,1,1,OLD,OLD,,,,,,,,
,,,,,,,,,,,,,,,,TestWords/DAI_RU_CHI.wav,,5991efc7b83f800001a5e431,2021-08-02_00h52.47.496,Agingstudy,2020.2.10,MacIntel,60,,,,,A,,,,,,,,,,,,,,,1,1,0.2509,0,90,90,90,1,1,OLD,OLD,,,,,,,,
,,,,,,,,,,,,,,,,TestWords/FU_RAI_ZO.wav,,5991efc7b83f800001a5e431,2021-08-02_00h52.47.496,Agingstudy,2020.2.10,MacIntel,60,,,,,A,,,,,,,,,,,,,,,1,0,0.5993,0,91,91,91,1,2,NEW,SIMILAR,,,,,,,,
,,,,,,,,,,,,,,,,TestWords/GU_CHAI_PI.wav,,5991efc7b83f800001a5e431,2021-08-02_00h52.47.496,Agingstudy,2020.2.10,MacIntel,60,,,,,A,,,,,,,,,,,,,,,1,0,0.4512,0,92,92,92,1,2,NEW,NEW,,,,,,,,
,,,,,,,,,,,,,,,,TestWords/GA_MU_ZI.wav,,5991efc7b83f800001a5e431,2021-08-02_00h52.47.496,Agingstudy,2020.2.10,MacIntel,60,,,,,A,,,,,,,,,,,,,,,1,1,0.1668,0,93,93,93,1,1,OLD,OLD,,,,,,,,
,,,,,,,,,,,,,,,,TestWords/DAI_RU_CHI.wav,,5991efc7b83f800001a5e431,2021-08-02_00h52.47.496,Agingstudy,2020.2.10,MacIntel,60,,,,,A,,,,,,,,,,,,,,,1,1,0.4494,0,94,94,94,1,1,OLD,OLD,,,,,,,,
,,,,,,,,,,,,,,,,TestWords/FU_ZO_RAI.wav,,5991efc7b83f800001a5e431,2021-08-02_00h52.47.496,Agingstudy,2020.2.10,MacIntel,60,,,,,A,,,,,,,,,,,,,,,1,0,0.1231,0,95,95,95,1,2,NEW,SIMILAR,,,,,,,,
,,,,,,,,,,,,,,,,TestWords/VAI_HO_LA.wav,,5991efc7b83f800001a5e431,2021-08-02_00h52.47.496,Agingstudy,2020.2.10,MacIntel,60,,,,,A,,,,,,,,,,,,,,,1,0,2.3113,0,96,96,96,1,2,NEW,NEW,,,,,,,,
,,,,,,,,,,,,,,,,TestWords/DAI_RU_CHI.wav,,5991efc7b83f800001a5e431,2021-08-02_00h52.47.496,Agingstudy,2020.2.10,MacIntel,60,,,,,A,,,,,,,,,,,,,,,1,1,0.2673,0,97,97,97,1,1,OLD,OLD,,,,,,,,
,,,,,,,,,,,,,,,,TestWords/LA_ZAY_CHAI.wav,,5991efc7b83f800001a5e431,2021-08-02_00h52.47.496,Agingstudy,2020.2.10,MacIntel,60,,,,,A,,,,,,,,,,,,,,,2,1,0.7563,0,98,98,98,1,2,NEW,NEW,,,,,,,,
,,,,,,,,,,,,,,,,TestWords/RAI_FU_ZO.wav,,5991efc7b83f800001a5e431,2021-08-02_00h52.47.496,Agingstudy,2020.2.10,MacIntel,60,,,,,A,,,,,,,,,,,,,,,2,1,0.832,0,99,99,99,1,2,NEW,SIMILAR,,,,,,,,
,,,,,,,,,,,,,,,,,,5991efc7b83f800001a5e431,2021-08-02_00h52.47.496,Agingstudy,2020.2.10,MacIntel,60,,,,,,,,,,,,,,,,,,,,,,,,,,,,,,,0,0,0,0,1,,,
,,,,,,,,,,,,,,,,,,5991efc7b83f800001a5e431,2021-08-02_00h52.47.496,Agingstudy,2020.2.10,MacIntel,60,,,,,,,,,,,,,,,,,,,,,,,,,,,,,,,,,,,,return,30.843,
