Welcome0Continue.keys,Welcome0Continue.rt,SoundCheckBegin.keys,SoundCheckBegin.rt,SoundCheckEndKey.keys,SoundCheckEndKey.rt,HeadphoneContinueKey.keys,HeadphoneContinueKey.rt,CheckResp.keys,CheckResp.corr,CheckResp.rt,HeadphoneLoop.thisRepN,HeadphoneLoop.thisTrialN,HeadphoneLoop.thisN,HeadphoneLoop.thisIndex,HeadphoneLoop.ran,File,Correct,participant,date,expName,psychopyVersion,OS,frameRate,ContinueKey8.keys,ContinueKey8.rt,MSTWelcomeContKey.keys,MSTWelcomeContKey.rt,Condition,MSTTrainIntroKey.keys,MSTTrainIntroKey.rt,MSTTrainKeys.keys,MSTTrainKeys.corr,MSTTrainKeys.rt,MSTTrainLoop.thisRepN,MSTTrainLoop.thisTrialN,MSTTrainLoop.thisN,MSTTrainLoop.thisIndex,MSTTrainLoop.ran,SoundFile,Type,MSTTestBeginKey.keys,MSTTestBeginKey.rt,MST_resp.keys,MST_resp.corr,MST_resp.rt,MSTPlayLoop.thisRepN,MSTPlayLoop.thisTrialN,MSTPlayLoop.thisN,MSTPlayLoop.thisIndex,MSTPlayLoop.ran,WordCorrect,Correct_type,WordType,MSTLoop.thisRepN,MSTLoop.thisTrialN,MSTLoop.thisN,MSTLoop.thisIndex,MSTLoop.ran,EndAllKey.keys,EndAllKey.rt,FeedbackResp.text
space,38.94,space,11.0229,space,22.9502,space,19.6457,1,1,4.9621,0,0,0,1,1,Headphone/t1_2.wav,1,5c377642bc6444000133aae9,2021-08-03_18h59.14.394,Agingstudy,2020.2.10,Win32,60,,,,,,,,,,,,,,,,,,,,,,,,,,,,,,,,,,,,,,
,,,,,,,,3,1,1.4367,0,1,1,5,1,Headphone/t3_2.wav,3,5c377642bc6444000133aae9,2021-08-03_18h59.14.394,Agingstudy,2020.2.10,Win32,60,,,,,,,,,,,,,,,,,,,,,,,,,,,,,,,,,,,,,,
,,,,,,,,2,1,0.7729,0,2,2,2,1,Headphone/t2_1.wav,2,5c377642bc6444000133aae9,2021-08-03_18h59.14.394,Agingstudy,2020.2.10,Win32,60,,,,,,,,,,,,,,,,,,,,,,,,,,,,,,,,,,,,,,
,,,,,,,,3,1,0.6356,0,3,3,4,1,Headphone/t3_1.wav,3,5c377642bc6444000133aae9,2021-08-03_18h59.14.394,Agingstudy,2020.2.10,Win32,60,,,,,,,,,,,,,,,,,,,,,,,,,,,,,,,,,,,,,,
,,,,,,,,2,1,0.8358,0,4,4,3,1,Headphone/t2_2.wav,2,5c377642bc6444000133aae9,2021-08-03_18h59.14.394,Agingstudy,2020.2.10,Win32,60,,,,,,,,,,,,,,,,,,,,,,,,,,,,,,,,,,,,,,
,,,,,,,,1,1,0.7692,0,5,5,0,1,Headphone/t1_1.wav,1,5c377642bc6444000133aae9,2021-08-03_18h59.14.394,Agingstudy,2020.2.10,Win32,60,,,,,,,,,,,,,,,,,,,,,,,,,,,,,,,,,,,,,,
,,,,,,,,,,,,,,,,,2,5c377642bc6444000133aae9,2021-08-03_18h59.14.394,Agingstudy,2020.2.10,Win32,60,space,116.9689,space,15.7546,1,space,10.1231,2,1,9.9843,0,0,0,0,1,Training/FO_YI_LAY.wav,NEW,,,,,,,,,,,,,,,,,,,,,
,,,,,,,,,,,,,,,,,1,5c377642bc6444000133aae9,2021-08-03_18h59.14.394,Agingstudy,2020.2.10,Win32,60,,,,,,,,1,1,3.806,0,1,1,1,1,Training/FO_YI_LAY.wav,OLD,,,,,,,,,,,,,,,,,,,,,
,,,,,,,,,,,,,,,,,2,5c377642bc6444000133aae9,2021-08-03_18h59.14.394,Agingstudy,2020.2.10,Win32,60,,,,,,,,2,1,3.9218,0,2,2,2,1,Training/YO_BU_JAY.wav,NEW,,,,,,,,,,,,,,,,,,,,,
,,,,,,,,,,,,,,,,,2,5c377642bc6444000133aae9,2021-08-03_18h59.14.394,Agingstudy,2020.2.10,Win32,60,,,,,,,,2,1,3.0404,0,3,3,3,1,Training/JAY_YO_BU.wav,SIMILAR,,,,,,,,,,,,,,,,,,,,,
,,,,,,,,,,,,,,,,,1,5c377642bc6444000133aae9,2021-08-03_18h59.14.394,Agingstudy,2020.2.10,Win32,60,,,,,,,,1,1,6.1728,0,4,4,4,1,Training/FO_YI_LAY.wav,OLD,,,,,,,,,,,,,,,,,,,,,
,,,,,,,,,,,,,,,,TestWords/HA_SI_JAI.wav,,5c377642bc6444000133aae9,2021-08-03_18h59.14.394,Agingstudy,2020.2.10,Win32,60,,,,,A,,,,,,,,,,,,,space,76.7298,2,1,7.5798,0,0,0,0,1,2,NEW,NEW,,,,,,,,
,,,,,,,,,,,,,,,,TestWords/KO_SU_FAI.wav,,5c377642bc6444000133aae9,2021-08-03_18h59.14.394,Agingstudy,2020.2.10,Win32,60,,,,,A,,,,,,,,,,,,,,,2,1,3.7707,0,1,1,1,1,2,NEW,NEW,,,,,,,,
,,,,,,,,,,,,,,,,TestWords/TAI_GI_SA.wav,,5c377642bc6444000133aae9,2021-08-03_18h59.14.394,Agingstudy,2020.2.10,Win32,60,,,,,A,,,,,,,,,,,,,,,2,1,0.8365,0,2,2,2,1,2,NEW,NEW,,,,,,,,
,,,,,,,,,,,,,,,,TestWords/KAI_LAY_TA.wav,,5c377642bc6444000133aae9,2021-08-03_18h59.14.394,Agingstudy,2020.2.10,Win32,60,,,,,A,,,,,,,,,,,,,,,1,0,4.8752,0,3,3,3,1,2,NEW,NEW,,,,,,,,
,,,,,,,,,,,,,,,,TestWords/RAY_PA_TI.wav,,5c377642bc6444000133aae9,2021-08-03_18h59.14.394,Agingstudy,2020.2.10,Win32,60,,,,,A,,,,,,,,,,,,,,,2,1,1.6988,0,4,4,4,1,2,NEW,NEW,,,,,,,,
,,,,,,,,,,,,,,,,TestWords/KO_SU_FAI.wav,,5c377642bc6444000133aae9,2021-08-03_18h59.14.394,Agingstudy,2020.2.10,Win32,60,,,,,A,,,,,,,,,,,,,,,1,1,1.1871,0,5,5,5,1,1,OLD,OLD,,,,,,,,
,,,,,,,,,,,,,,,,TestWords/TAI_SA_GI.wav,,5c377642bc6444000133aae9,2021-08-03_18h59.14.394,Agingstudy,2020.2.10,Win32,60,,,,,A,,,,,,,,,,,,,,,2,1,1.0882,0,6,6,6,1,2,NEW,SIMILAR,,,,,,,,
,,,,,,,,,,,,,,,,TestWords/KAI_LAY_TA.wav,,5c377642bc6444000133aae9,2021-08-03_18h59.14.394,Agingstudy,2020.2.10,Win32,60,,,,,A,,,,,,,,,,,,,,,2,0,1.3489,0,7,7,7,1,1,OLD,OLD,,,,,,,,
,,,,,,,,,,,,,,,,TestWords/NA_WAI_VU.wav,,5c377642bc6444000133aae9,2021-08-03_18h59.14.394,Agingstudy,2020.2.10,Win32,60,,,,,A,,,,,,,,,,,,,,,2,1,0.5361,0,8,8,8,1,2,NEW,NEW,,,,,,,,
,,,,,,,,,,,,,,,,TestWords/KO_SU_FAI.wav,,5c377642bc6444000133aae9,2021-08-03_18h59.14.394,Agingstudy,2020.2.10,Win32,60,,,,,A,,,,,,,,,,,,,,,1,1,1.8554,0,9,9,9,1,1,OLD,OLD,,,,,,,,
,,,,,,,,,,,,,,,,TestWords/RAY_PA_TI.wav,,5c377642bc6444000133aae9,2021-08-03_18h59.14.394,Agingstudy,2020.2.10,Win32,60,,,,,A,,,,,,,,,,,,,,,1,1,0.619,0,10,10,10,1,1,OLD,OLD,,,,,,,,
,,,,,,,,,,,,,,,,TestWords/GI_SA_TAI.wav,,5c377642bc6444000133aae9,2021-08-03_18h59.14.394,Agingstudy,2020.2.10,Win32,60,,,,,A,,,,,,,,,,,,,,,2,1,1.8694,0,11,11,11,1,2,NEW,SIMILAR,,,,,,,,
,,,,,,,,,,,,,,,,TestWords/WAI_VU_NA.wav,,5c377642bc6444000133aae9,2021-08-03_18h59.14.394,Agingstudy,2020.2.10,Win32,60,,,,,A,,,,,,,,,,,,,,,2,1,2.0065,0,12,12,12,1,2,NEW,SIMILAR,,,,,,,,
,,,,,,,,,,,,,,,,TestWords/KAI_LAY_TA.wav,,5c377642bc6444000133aae9,2021-08-03_18h59.14.394,Agingstudy,2020.2.10,Win32,60,,,,,A,,,,,,,,,,,,,,,1,1,0.9218,0,13,13,13,1,1,OLD,OLD,,,,,,,,
,,,,,,,,,,,,,,,,TestWords/SI_VAI_CHU.wav,,5c377642bc6444000133aae9,2021-08-03_18h59.14.394,Agingstudy,2020.2.10,Win32,60,,,,,A,,,,,,,,,,,,,,,2,1,1.434,0,14,14,14,1,2,NEW,NEW,,,,,,,,
,,,,,,,,,,,,,,,,TestWords/GI_TAI_SA.wav,,5c377642bc6444000133aae9,2021-08-03_18h59.14.394,Agingstudy,2020.2.10,Win32,60,,,,,A,,,,,,,,,,,,,,,1,0,0.8854,0,15,15,15,1,2,NEW,SIMILAR,,,,,,,,
,,,,,,,,,,,,,,,,TestWords/KO_SU_FAI.wav,,5c377642bc6444000133aae9,2021-08-03_18h59.14.394,Agingstudy,2020.2.10,Win32,60,,,,,A,,,,,,,,,,,,,,,1,1,1.3689,0,16,16,16,1,1,OLD,OLD,,,,,,,,
,,,,,,,,,,,,,,,,TestWords/DA_CHU_VAI.wav,,5c377642bc6444000133aae9,2021-08-03_18h59.14.394,Agingstudy,2020.2.10,Win32,60,,,,,A,,,,,,,,,,,,,,,1,0,0.9719,0,17,17,17,1,2,NEW,NEW,,,,,,,,
,,,,,,,,,,,,,,,,TestWords/RAY_PA_TI.wav,,5c377642bc6444000133aae9,2021-08-03_18h59.14.394,Agingstudy,2020.2.10,Win32,60,,,,,A,,,,,,,,,,,,,,,1,1,0.8058,0,18,18,18,1,1,OLD,OLD,,,,,,,,
,,,,,,,,,,,,,,,,TestWords/KAI_LAY_TA.wav,,5c377642bc6444000133aae9,2021-08-03_18h59.14.394,Agingstudy,2020.2.10,Win32,60,,,,,A,,,,,,,,,,,,,,,1,1,0.6863,0,19,19,19,1,1,OLD,OLD,,,,,,,,
,,,,,,,,,,,,,,,,TestWords/WAI_NA_VU.wav,,5c377642bc6444000133aae9,2021-08-03_18h59.14.394,Agingstudy,2020.2.10,Win32,60,,,,,A,,,,,,,,,,,,,,,2,1,3.455,0,20,20,20,1,2,NEW,SIMILAR,,,,,,,,
,,,,,,,,,,,,,,,,TestWords/KO_SU_FAI.wav,,5c377642bc6444000133aae9,2021-08-03_18h59.14.394,Agingstudy,2020.2.10,Win32,60,,,,,A,,,,,,,,,,,,,,,1,1,0.7861,0,21,21,21,1,1,OLD,OLD,,,,,,,,
,,,,,,,,,,,,,,,,TestWords/SA_TAI_GI.wav,,5c377642bc6444000133aae9,2021-08-03_18h59.14.394,Agingstudy,2020.2.10,Win32,60,,,,,A,,,,,,,,,,,,,,,2,1,0.8371,0,22,22,22,1,2,NEW,SIMILAR,,,,,,,,
,,,,,,,,,,,,,,,,TestWords/RAY_PA_TI.wav,,5c377642bc6444000133aae9,2021-08-03_18h59.14.394,Agingstudy,2020.2.10,Win32,60,,,,,A,,,,,,,,,,,,,,,1,1,1.7241,0,23,23,23,1,1,OLD,OLD,,,,,,,,
,,,,,,,,,,,,,,,,TestWords/VU_NA_WAI.wav,,5c377642bc6444000133aae9,2021-08-03_18h59.14.394,Agingstudy,2020.2.10,Win32,60,,,,,A,,,,,,,,,,,,,,,2,1,2.128,0,24,24,24,1,2,NEW,SIMILAR,,,,,,,,
,,,,,,,,,,,,,,,,TestWords/KAI_LAY_TA.wav,,5c377642bc6444000133aae9,2021-08-03_18h59.14.394,Agingstudy,2020.2.10,Win32,60,,,,,A,,,,,,,,,,,,,,,1,1,0.5937,0,25,25,25,1,1,OLD,OLD,,,,,,,,
,,,,,,,,,,,,,,,,TestWords/WAI_RO_JU.wav,,5c377642bc6444000133aae9,2021-08-03_18h59.14.394,Agingstudy,2020.2.10,Win32,60,,,,,A,,,,,,,,,,,,,,,2,1,4.5865,0,26,26,26,1,2,NEW,NEW,,,,,,,,
,,,,,,,,,,,,,,,,TestWords/KO_SU_FAI.wav,,5c377642bc6444000133aae9,2021-08-03_18h59.14.394,Agingstudy,2020.2.10,Win32,60,,,,,A,,,,,,,,,,,,,,,1,1,0.7721,0,27,27,27,1,1,OLD,OLD,,,,,,,,
,,,,,,,,,,,,,,,,TestWords/SA_GI_TAI.wav,,5c377642bc6444000133aae9,2021-08-03_18h59.14.394,Agingstudy,2020.2.10,Win32,60,,,,,A,,,,,,,,,,,,,,,1,0,1.7304,0,28,28,28,1,2,NEW,SIMILAR,,,,,,,,
,,,,,,,,,,,,,,,,TestWords/RAY_PA_TI.wav,,5c377642bc6444000133aae9,2021-08-03_18h59.14.394,Agingstudy,2020.2.10,Win32,60,,,,,A,,,,,,,,,,,,,,,1,1,0.7199,0,29,29,29,1,1,OLD,OLD,,,,,,,,
,,,,,,,,,,,,,,,,TestWords/GA_MU_ZI.wav,,5c377642bc6444000133aae9,2021-08-03_18h59.14.394,Agingstudy,2020.2.10,Win32,60,,,,,A,,,,,,,,,,,,,,,2,1,2.1359,0,30,30,30,1,2,NEW,NEW,,,,,,,,
,,,,,,,,,,,,,,,,TestWords/KAI_LAY_TA.wav,,5c377642bc6444000133aae9,2021-08-03_18h59.14.394,Agingstudy,2020.2.10,Win32,60,,,,,A,,,,,,,,,,,,,,,1,1,0.5323,0,31,31,31,1,1,OLD,OLD,,,,,,,,
,,,,,,,,,,,,,,,,TestWords/VU_WAI_NA.wav,,5c377642bc6444000133aae9,2021-08-03_18h59.14.394,Agingstudy,2020.2.10,Win32,60,,,,,A,,,,,,,,,,,,,,,1,0,1.4374,0,32,32,32,1,2,NEW,SIMILAR,,,,,,,,
,,,,,,,,,,,,,,,,TestWords/RAY_PA_TI.wav,,5c377642bc6444000133aae9,2021-08-03_18h59.14.394,Agingstudy,2020.2.10,Win32,60,,,,,A,,,,,,,,,,,,,,,1,1,0.6018,0,33,33,33,1,1,OLD,OLD,,,,,,,,
,,,,,,,,,,,,,,,,TestWords/LI_KAY_BA.wav,,5c377642bc6444000133aae9,2021-08-03_18h59.14.394,Agingstudy,2020.2.10,Win32,60,,,,,A,,,,,,,,,,,,,,,2,1,0.598,0,34,34,34,1,2,NEW,NEW,,,,,,,,
,,,,,,,,,,,,,,,,TestWords/HI_NAY_VA.wav,,5c377642bc6444000133aae9,2021-08-03_18h59.14.394,Agingstudy,2020.2.10,Win32,60,,,,,A,,,,,,,,,,,,,,,2,1,0.694,0,35,35,35,1,2,NEW,NEW,,,,,,,,
,,,,,,,,,,,,,,,,TestWords/KO_SU_FAI.wav,,5c377642bc6444000133aae9,2021-08-03_18h59.14.394,Agingstudy,2020.2.10,Win32,60,,,,,A,,,,,,,,,,,,,,,1,1,0.5391,0,36,36,36,1,1,OLD,OLD,,,,,,,,
,,,,,,,,,,,,,,,,TestWords/NA_VU_WAI.wav,,5c377642bc6444000133aae9,2021-08-03_18h59.14.394,Agingstudy,2020.2.10,Win32,60,,,,,A,,,,,,,,,,,,,,,1,0,2.1554,0,37,37,37,1,2,NEW,SIMILAR,,,,,,,,
,,,,,,,,,,,,,,,,TestWords/GA_MU_ZI.wav,,5c377642bc6444000133aae9,2021-08-03_18h59.14.394,Agingstudy,2020.2.10,Win32,60,,,,,A,,,,,,,,,,,,,,,2,0,1.7903,0,38,38,38,1,1,OLD,OLD,,,,,,,,
,,,,,,,,,,,,,,,,TestWords/KAI_LAY_TA.wav,,5c377642bc6444000133aae9,2021-08-03_18h59.14.394,Agingstudy,2020.2.10,Win32,60,,,,,A,,,,,,,,,,,,,,,1,1,0.5197,0,39,39,39,1,1,OLD,OLD,,,,,,,,
,,,,,,,,,,,,,,,,TestWords/DAI_RU_CHI.wav,,5c377642bc6444000133aae9,2021-08-03_18h59.14.394,Agingstudy,2020.2.10,Win32,60,,,,,A,,,,,,,,,,,,,,,2,1,3.9608,0,40,40,40,1,2,NEW,NEW,,,,,,,,
,,,,,,,,,,,,,,,,TestWords/NU_CHAY_SO.wav,,5c377642bc6444000133aae9,2021-08-03_18h59.14.394,Agingstudy,2020.2.10,Win32,60,,,,,A,,,,,,,,,,,,,,,1,0,1.2883,0,41,41,41,1,2,NEW,NEW,,,,,,,,
,,,,,,,,,,,,,,,,TestWords/RAY_PA_TI.wav,,5c377642bc6444000133aae9,2021-08-03_18h59.14.394,Agingstudy,2020.2.10,Win32,60,,,,,A,,,,,,,,,,,,,,,1,1,0.6359,0,42,42,42,1,1,OLD,OLD,,,,,,,,
,,,,,,,,,,,,,,,,TestWords/BA_KAY_LI.wav,,5c377642bc6444000133aae9,2021-08-03_18h59.14.394,Agingstudy,2020.2.10,Win32,60,,,,,A,,,,,,,,,,,,,,,2,1,1.8726,0,43,43,43,1,2,NEW,SIMILAR,,,,,,,,
,,,,,,,,,,,,,,,,TestWords/KO_SU_FAI.wav,,5c377642bc6444000133aae9,2021-08-03_18h59.14.394,Agingstudy,2020.2.10,Win32,60,,,,,A,,,,,,,,,,,,,,,1,1,0.5803,0,44,44,44,1,1,OLD,OLD,,,,,,,,
,,,,,,,,,,,,,,,,TestWords/GA_MU_ZI.wav,,5c377642bc6444000133aae9,2021-08-03_18h59.14.394,Agingstudy,2020.2.10,Win32,60,,,,,A,,,,,,,,,,,,,,,2,0,3.2192,0,45,45,45,1,1,OLD,OLD,,,,,,,,
,,,,,,,,,,,,,,,,TestWords/CHU_LA_PAY.wav,,5c377642bc6444000133aae9,2021-08-03_18h59.14.394,Agingstudy,2020.2.10,Win32,60,,,,,A,,,,,,,,,,,,,,,1,0,1.8365,0,46,46,46,1,2,NEW,NEW,,,,,,,,
,,,,,,,,,,,,,,,,TestWords/KAI_LAY_TA.wav,,5c377642bc6444000133aae9,2021-08-03_18h59.14.394,Agingstudy,2020.2.10,Win32,60,,,,,A,,,,,,,,,,,,,,,1,1,0.5942,0,47,47,47,1,1,OLD,OLD,,,,,,,,
,,,,,,,,,,,,,,,,TestWords/DAI_RU_CHI.wav,,5c377642bc6444000133aae9,2021-08-03_18h59.14.394,Agingstudy,2020.2.10,Win32,60,,,,,A,,,,,,,,,,,,,,,1,1,6.388,0,48,48,48,1,1,OLD,OLD,,,,,,,,
,,,,,,,,,,,,,,,,TestWords/KO_SU_FAI.wav,,5c377642bc6444000133aae9,2021-08-03_18h59.14.394,Agingstudy,2020.2.10,Win32,60,,,,,A,,,,,,,,,,,,,,,1,1,0.2533,0,49,49,49,1,1,OLD,OLD,,,,,,,,
,,,,,,,,,,,,,,,,TestWords/KAY_LI_BA.wav,,5c377642bc6444000133aae9,2021-08-03_18h59.14.394,Agingstudy,2020.2.10,Win32,60,,,,,A,,,,,,,,,,,,,,,2,1,3.5762,0,50,50,50,1,2,NEW,SIMILAR,,,,,,,,
,,,,,,,,,,,,,,,,TestWords/RAY_PA_TI.wav,,5c377642bc6444000133aae9,2021-08-03_18h59.14.394,Agingstudy,2020.2.10,Win32,60,,,,,A,,,,,,,,,,,,,,,1,1,0.3403,0,51,51,51,1,1,OLD,OLD,,,,,,,,
,,,,,,,,,,,,,,,,TestWords/KAI_LAY_TA.wav,,5c377642bc6444000133aae9,2021-08-03_18h59.14.394,Agingstudy,2020.2.10,Win32,60,,,,,A,,,,,,,,,,,,,,,1,1,0.6332,0,52,52,52,1,1,OLD,OLD,,,,,,,,
,,,,,,,,,,,,,,,,TestWords/HO_NAY_VA.wav,,5c377642bc6444000133aae9,2021-08-03_18h59.14.394,Agingstudy,2020.2.10,Win32,60,,,,,A,,,,,,,,,,,,,,,2,1,2.4356,0,53,53,53,1,2,NEW,NEW,,,,,,,,
,,,,,,,,,,,,,,,,TestWords/GA_MU_ZI.wav,,5c377642bc6444000133aae9,2021-08-03_18h59.14.394,Agingstudy,2020.2.10,Win32,60,,,,,A,,,,,,,,,,,,,,,1,1,0.9195,0,54,54,54,1,1,OLD,OLD,,,,,,,,
,,,,,,,,,,,,,,,,TestWords/DAI_RU_CHI.wav,,5c377642bc6444000133aae9,2021-08-03_18h59.14.394,Agingstudy,2020.2.10,Win32,60,,,,,A,,,,,,,,,,,,,,,1,1,0.4183,0,55,55,55,1,1,OLD,OLD,,,,,,,,
,,,,,,,,,,,,,,,,TestWords/MO_PU_DAY.wav,,5c377642bc6444000133aae9,2021-08-03_18h59.14.394,Agingstudy,2020.2.10,Win32,60,,,,,A,,,,,,,,,,,,,,,2,1,0.4292,0,56,56,56,1,2,NEW,NEW,,,,,,,,
,,,,,,,,,,,,,,,,TestWords/KO_SU_FAI.wav,,5c377642bc6444000133aae9,2021-08-03_18h59.14.394,Agingstudy,2020.2.10,Win32,60,,,,,A,,,,,,,,,,,,,,,1,1,0.4547,0,57,57,57,1,1,OLD,OLD,,,,,,,,
,,,,,,,,,,,,,,,,TestWords/KAY_BA_LI.wav,,5c377642bc6444000133aae9,2021-08-03_18h59.14.394,Agingstudy,2020.2.10,Win32,60,,,,,A,,,,,,,,,,,,,,,2,1,1.7088,0,58,58,58,1,2,NEW,SIMILAR,,,,,,,,
,,,,,,,,,,,,,,,,TestWords/RAY_PA_TI.wav,,5c377642bc6444000133aae9,2021-08-03_18h59.14.394,Agingstudy,2020.2.10,Win32,60,,,,,A,,,,,,,,,,,,,,,1,1,0.2686,0,59,59,59,1,1,OLD,OLD,,,,,,,,
,,,,,,,,,,,,,,,,TestWords/KAI_LAY_TA.wav,,5c377642bc6444000133aae9,2021-08-03_18h59.14.394,Agingstudy,2020.2.10,Win32,60,,,,,A,,,,,,,,,,,,,,,1,1,1.0444,0,60,60,60,1,1,OLD,OLD,,,,,,,,
,,,,,,,,,,,,,,,,TestWords/GA_MU_ZI.wav,,5c377642bc6444000133aae9,2021-08-03_18h59.14.394,Agingstudy,2020.2.10,Win32,60,,,,,A,,,,,,,,,,,,,,,1,1,0.9027,0,61,61,61,1,1,OLD,OLD,,,,,,,,
,,,,,,,,,,,,,,,,TestWords/DAY_PU_MO.wav,,5c377642bc6444000133aae9,2021-08-03_18h59.14.394,Agingstudy,2020.2.10,Win32,60,,,,,A,,,,,,,,,,,,,,,2,1,1.252,0,62,62,62,1,2,NEW,SIMILAR,,,,,,,,
,,,,,,,,,,,,,,,,TestWords/DAI_RU_CHI.wav,,5c377642bc6444000133aae9,2021-08-03_18h59.14.394,Agingstudy,2020.2.10,Win32,60,,,,,A,,,,,,,,,,,,,,,1,1,0.9768,0,63,63,63,1,1,OLD,OLD,,,,,,,,
,,,,,,,,,,,,,,,,TestWords/LI_BA_KAY.wav,,5c377642bc6444000133aae9,2021-08-03_18h59.14.394,Agingstudy,2020.2.10,Win32,60,,,,,A,,,,,,,,,,,,,,,1,0,3.3462,0,64,64,64,1,2,NEW,SIMILAR,,,,,,,,
,,,,,,,,,,,,,,,,TestWords/KAI_LAY_TA.wav,,5c377642bc6444000133aae9,2021-08-03_18h59.14.394,Agingstudy,2020.2.10,Win32,60,,,,,A,,,,,,,,,,,,,,,1,1,0.8259,0,65,65,65,1,1,OLD,OLD,,,,,,,,
,,,,,,,,,,,,,,,,TestWords/KO_SU_FAI.wav,,5c377642bc6444000133aae9,2021-08-03_18h59.14.394,Agingstudy,2020.2.10,Win32,60,,,,,A,,,,,,,,,,,,,,,1,1,0.4854,0,66,66,66,1,1,OLD,OLD,,,,,,,,
,,,,,,,,,,,,,,,,TestWords/DAY_MO_PU.wav,,5c377642bc6444000133aae9,2021-08-03_18h59.14.394,Agingstudy,2020.2.10,Win32,60,,,,,A,,,,,,,,,,,,,,,2,1,3.2063,0,67,67,67,1,2,NEW,SIMILAR,,,,,,,,
,,,,,,,,,,,,,,,,TestWords/RAY_PA_TI.wav,,5c377642bc6444000133aae9,2021-08-03_18h59.14.394,Agingstudy,2020.2.10,Win32,60,,,,,A,,,,,,,,,,,,,,,1,1,0.1735,0,68,68,68,1,1,OLD,OLD,,,,,,,,
,,,,,,,,,,,,,,,,TestWords/GA_MU_ZI.wav,,5c377642bc6444000133aae9,2021-08-03_18h59.14.394,Agingstudy,2020.2.10,Win32,60,,,,,A,,,,,,,,,,,,,,,1,1,0.7201,0,69,69,69,1,1,OLD,OLD,,,,,,,,
,,,,,,,,,,,,,,,,TestWords/BA_LI_KAY.wav,,5c377642bc6444000133aae9,2021-08-03_18h59.14.394,Agingstudy,2020.2.10,Win32,60,,,,,A,,,,,,,,,,,,,,,1,0,2.765,0,70,70,70,1,2,NEW,SIMILAR,,,,,,,,
,,,,,,,,,,,,,,,,TestWords/DAI_RU_CHI.wav,,5c377642bc6444000133aae9,2021-08-03_18h59.14.394,Agingstudy,2020.2.10,Win32,60,,,,,A,,,,,,,,,,,,,,,1,1,0.7698,0,71,71,71,1,1,OLD,OLD,,,,,,,,
,,,,,,,,,,,,,,,,TestWords/LU_HAI_BO.wav,,5c377642bc6444000133aae9,2021-08-03_18h59.14.394,Agingstudy,2020.2.10,Win32,60,,,,,A,,,,,,,,,,,,,,,1,0,0.937,0,72,72,72,1,2,NEW,NEW,,,,,,,,
,,,,,,,,,,,,,,,,TestWords/RAY_PA_TI.wav,,5c377642bc6444000133aae9,2021-08-03_18h59.14.394,Agingstudy,2020.2.10,Win32,60,,,,,A,,,,,,,,,,,,,,,1,1,0.135,0,73,73,73,1,1,OLD,OLD,,,,,,,,
,,,,,,,,,,,,,,,,TestWords/GA_MU_ZI.wav,,5c377642bc6444000133aae9,2021-08-03_18h59.14.394,Agingstudy,2020.2.10,Win32,60,,,,,A,,,,,,,,,,,,,,,1,1,1.1551,0,74,74,74,1,1,OLD,OLD,,,,,,,,
,,,,,,,,,,,,,,,,TestWords/MO_DAY_PU.wav,,5c377642bc6444000133aae9,2021-08-03_18h59.14.394,Agingstudy,2020.2.10,Win32,60,,,,,A,,,,,,,,,,,,,,,2,1,2.2574,0,75,75,75,1,2,NEW,SIMILAR,,,,,,,,
,,,,,,,,,,,,,,,,TestWords/DAI_RU_CHI.wav,,5c377642bc6444000133aae9,2021-08-03_18h59.14.394,Agingstudy,2020.2.10,Win32,60,,,,,A,,,,,,,,,,,,,,,1,1,0.4516,0,76,76,76,1,1,OLD,OLD,,,,,,,,
,,,,,,,,,,,,,,,,TestWords/ZO_FU_RAI.wav,,5c377642bc6444000133aae9,2021-08-03_18h59.14.394,Agingstudy,2020.2.10,Win32,60,,,,,A,,,,,,,,,,,,,,,2,1,3.035,0,77,77,77,1,2,NEW,NEW,,,,,,,,
,,,,,,,,,,,,,,,,TestWords/NO_WA_BAY.wav,,5c377642bc6444000133aae9,2021-08-03_18h59.14.394,Agingstudy,2020.2.10,Win32,60,,,,,A,,,,,,,,,,,,,,,2,1,3.9895,0,78,78,78,1,2,NEW,NEW,,,,,,,,
,,,,,,,,,,,,,,,,TestWords/GA_MU_ZI.wav,,5c377642bc6444000133aae9,2021-08-03_18h59.14.394,Agingstudy,2020.2.10,Win32,60,,,,,A,,,,,,,,,,,,,,,1,1,0.2452,0,79,79,79,1,1,OLD,OLD,,,,,,,,
,,,,,,,,,,,,,,,,TestWords/DAI_RU_CHI.wav,,5c377642bc6444000133aae9,2021-08-03_18h59.14.394,Agingstudy,2020.2.10,Win32,60,,,,,A,,,,,,,,,,,,,,,1,1,0.452,0,80,80,80,1,1,OLD,OLD,,,,,,,,
,,,,,,,,,,,,,,,,TestWords/PU_DAY_MO.wav,,5c377642bc6444000133aae9,2021-08-03_18h59.14.394,Agingstudy,2020.2.10,Win32,60,,,,,A,,,,,,,,,,,,,,,1,0,2.2403,0,81,81,81,1,2,NEW,SIMILAR,,,,,,,,
,,,,,,,,,,,,,,,,TestWords/RAI_ZO_FU.wav,,5c377642bc6444000133aae9,2021-08-03_18h59.14.394,Agingstudy,2020.2.10,Win32,60,,,,,A,,,,,,,,,,,,,,,2,1,2.574,0,82,82,82,1,2,NEW,SIMILAR,,,,,,,,
,,,,,,,,,,,,,,,,TestWords/GA_MU_ZI.wav,,5c377642bc6444000133aae9,2021-08-03_18h59.14.394,Agingstudy,2020.2.10,Win32,60,,,,,A,,,,,,,,,,,,,,,1,1,0.3479,0,83,83,83,1,1,OLD,OLD,,,,,,,,
,,,,,,,,,,,,,,,,TestWords/PAI_LU_WA.wav,,5c377642bc6444000133aae9,2021-08-03_18h59.14.394,Agingstudy,2020.2.10,Win32,60,,,,,A,,,,,,,,,,,,,,,2,1,1.395,0,84,84,84,1,2,NEW,NEW,,,,,,,,
,,,,,,,,,,,,,,,,TestWords/PU_MO_DAY.wav,,5c377642bc6444000133aae9,2021-08-03_18h59.14.394,Agingstudy,2020.2.10,Win32,60,,,,,A,,,,,,,,,,,,,,,1,0,1.447,0,85,85,85,1,2,NEW,SIMILAR,,,,,,,,
,,,,,,,,,,,,,,,,TestWords/DAI_RU_CHI.wav,,5c377642bc6444000133aae9,2021-08-03_18h59.14.394,Agingstudy,2020.2.10,Win32,60,,,,,A,,,,,,,,,,,,,,,1,1,1.139,0,86,86,86,1,1,OLD,OLD,,,,,,,,
,,,,,,,,,,,,,,,,TestWords/ZO_RAI_FU.wav,,5c377642bc6444000133aae9,2021-08-03_18h59.14.394,Agingstudy,2020.2.10,Win32,60,,,,,A,,,,,,,,,,,,,,,1,0,1.1564,0,87,87,87,1,2,NEW,SIMILAR,,,,,,,,
,,,,,,,,,,,,,,,,TestWords/FI_GU_CHA.wav,,5c377642bc6444000133aae9,2021-08-03_18h59.14.394,Agingstudy,2020.2.10,Win32,60,,,,,A,,,,,,,,,,,,,,,2,1,1.6903,0,88,88,88,1,2,NEW,NEW,,,,,,,,
,,,,,,,,,,,,,,,,TestWords/GA_MU_ZI.wav,,5c377642bc6444000133aae9,2021-08-03_18h59.14.394,Agingstudy,2020.2.10,Win32,60,,,,,A,,,,,,,,,,,,,,,1,1,0.3207,0,89,89,89,1,1,OLD,OLD,,,,,,,,
,,,,,,,,,,,,,,,,TestWords/DAI_RU_CHI.wav,,5c377642bc6444000133aae9,2021-08-03_18h59.14.394,Agingstudy,2020.2.10,Win32,60,,,,,A,,,,,,,,,,,,,,,1,1,0.2703,0,90,90,90,1,1,OLD,OLD,,,,,,,,
,,,,,,,,,,,,,,,,TestWords/FU_RAI_ZO.wav,,5c377642bc6444000133aae9,2021-08-03_18h59.14.394,Agingstudy,2020.2.10,Win32,60,,,,,A,,,,,,,,,,,,,,,1,0,0.9539,0,91,91,91,1,2,NEW,SIMILAR,,,,,,,,
,,,,,,,,,,,,,,,,TestWords/GU_CHAI_PI.wav,,5c377642bc6444000133aae9,2021-08-03_18h59.14.394,Agingstudy,2020.2.10,Win32,60,,,,,A,,,,,,,,,,,,,,,2,1,1.9397,0,92,92,92,1,2,NEW,NEW,,,,,,,,
,,,,,,,,,,,,,,,,TestWords/GA_MU_ZI.wav,,5c377642bc6444000133aae9,2021-08-03_18h59.14.394,Agingstudy,2020.2.10,Win32,60,,,,,A,,,,,,,,,,,,,,,1,1,0.336,0,93,93,93,1,1,OLD,OLD,,,,,,,,
,,,,,,,,,,,,,,,,TestWords/DAI_RU_CHI.wav,,5c377642bc6444000133aae9,2021-08-03_18h59.14.394,Agingstudy,2020.2.10,Win32,60,,,,,A,,,,,,,,,,,,,,,1,1,0.4687,0,94,94,94,1,1,OLD,OLD,,,,,,,,
,,,,,,,,,,,,,,,,TestWords/FU_ZO_RAI.wav,,5c377642bc6444000133aae9,2021-08-03_18h59.14.394,Agingstudy,2020.2.10,Win32,60,,,,,A,,,,,,,,,,,,,,,1,0,1.9604,0,95,95,95,1,2,NEW,SIMILAR,,,,,,,,
,,,,,,,,,,,,,,,,TestWords/VAI_HO_LA.wav,,5c377642bc6444000133aae9,2021-08-03_18h59.14.394,Agingstudy,2020.2.10,Win32,60,,,,,A,,,,,,,,,,,,,,,2,1,1.8388,0,96,96,96,1,2,NEW,NEW,,,,,,,,
,,,,,,,,,,,,,,,,TestWords/DAI_RU_CHI.wav,,5c377642bc6444000133aae9,2021-08-03_18h59.14.394,Agingstudy,2020.2.10,Win32,60,,,,,A,,,,,,,,,,,,,,,1,1,0.4211,0,97,97,97,1,1,OLD,OLD,,,,,,,,
,,,,,,,,,,,,,,,,TestWords/LA_ZAY_CHAI.wav,,5c377642bc6444000133aae9,2021-08-03_18h59.14.394,Agingstudy,2020.2.10,Win32,60,,,,,A,,,,,,,,,,,,,,,2,1,2.8889,0,98,98,98,1,2,NEW,NEW,,,,,,,,
,,,,,,,,,,,,,,,,TestWords/RAI_FU_ZO.wav,,5c377642bc6444000133aae9,2021-08-03_18h59.14.394,Agingstudy,2020.2.10,Win32,60,,,,,A,,,,,,,,,,,,,,,1,0,0.9821,0,99,99,99,1,2,NEW,SIMILAR,,,,,,,,
,,,,,,,,,,,,,,,,,,5c377642bc6444000133aae9,2021-08-03_18h59.14.394,Agingstudy,2020.2.10,Win32,60,,,,,,,,,,,,,,,,,,,,,,,,,,,,,,,0,0,0,0,1,,,
,,,,,,,,,,,,,,,,,,5c377642bc6444000133aae9,2021-08-03_18h59.14.394,Agingstudy,2020.2.10,Win32,60,,,,,,,,,,,,,,,,,,,,,,,,,,,,,,,,,,,,return,42.5462,
