Welcome0Continue.keys,Welcome0Continue.rt,SoundCheckBegin.keys,SoundCheckBegin.rt,SoundCheckEndKey.keys,SoundCheckEndKey.rt,HeadphoneContinueKey.keys,HeadphoneContinueKey.rt,CheckResp.keys,CheckResp.corr,CheckResp.rt,HeadphoneLoop.thisRepN,HeadphoneLoop.thisTrialN,HeadphoneLoop.thisN,HeadphoneLoop.thisIndex,HeadphoneLoop.ran,File,Correct,participant,date,expName,psychopyVersion,OS,frameRate,ContinueKey8.keys,ContinueKey8.rt,MSTWelcomeContKey.keys,MSTWelcomeContKey.rt,Condition,MSTTrainIntroKey.keys,MSTTrainIntroKey.rt,MSTTrainKeys.keys,MSTTrainKeys.corr,MSTTrainKeys.rt,MSTTrainLoop.thisRepN,MSTTrainLoop.thisTrialN,MSTTrainLoop.thisN,MSTTrainLoop.thisIndex,MSTTrainLoop.ran,SoundFile,Type,MSTTestBeginKey.keys,MSTTestBeginKey.rt,MST_resp.keys,MST_resp.corr,MST_resp.rt,MSTPlayLoop.thisRepN,MSTPlayLoop.thisTrialN,MSTPlayLoop.thisN,MSTPlayLoop.thisIndex,MSTPlayLoop.ran,WordCorrect,Correct_type,WordType,MSTLoop.thisRepN,MSTLoop.thisTrialN,MSTLoop.thisN,MSTLoop.thisIndex,MSTLoop.ran,EndAllKey.keys,EndAllKey.rt,FeedbackResp.text
space,9.4817,space,6.1019,space,18.4962,space,23.922,1,1,4.6489,0,0,0,1,1,Headphone/t1_2.wav,1,5c73a9d92dfbdb0001b95375,2021-11-01_07h01.24.838,Agingstudy,2020.2.10,Win32,60,,,,,,,,,,,,,,,,,,,,,,,,,,,,,,,,,,,,,,
,,,,,,,,3,1,4.6028,0,1,1,4,1,Headphone/t3_1.wav,3,5c73a9d92dfbdb0001b95375,2021-11-01_07h01.24.838,Agingstudy,2020.2.10,Win32,60,,,,,,,,,,,,,,,,,,,,,,,,,,,,,,,,,,,,,,
,,,,,,,,2,1,1.5365,0,2,2,3,1,Headphone/t2_2.wav,2,5c73a9d92dfbdb0001b95375,2021-11-01_07h01.24.838,Agingstudy,2020.2.10,Win32,60,,,,,,,,,,,,,,,,,,,,,,,,,,,,,,,,,,,,,,
,,,,,,,,3,1,0.9028,0,3,3,5,1,Headphone/t3_2.wav,3,5c73a9d92dfbdb0001b95375,2021-11-01_07h01.24.838,Agingstudy,2020.2.10,Win32,60,,,,,,,,,,,,,,,,,,,,,,,,,,,,,,,,,,,,,,
,,,,,,,,1,1,0.5777,0,4,4,0,1,Headphone/t1_1.wav,1,5c73a9d92dfbdb0001b95375,2021-11-01_07h01.24.838,Agingstudy,2020.2.10,Win32,60,,,,,,,,,,,,,,,,,,,,,,,,,,,,,,,,,,,,,,
,,,,,,,,2,1,0.4943,0,5,5,2,1,Headphone/t2_1.wav,2,5c73a9d92dfbdb0001b95375,2021-11-01_07h01.24.838,Agingstudy,2020.2.10,Win32,60,,,,,,,,,,,,,,,,,,,,,,,,,,,,,,,,,,,,,,
,,,,,,,,,,,,,,,,,2,5c73a9d92dfbdb0001b95375,2021-11-01_07h01.24.838,Agingstudy,2020.2.10,Win32,60,space,31.2212,space,15.8097,1,space,5.2352,2,1,20.8759,0,0,0,0,1,Training/FO_YI_LAY.wav,NEW,,,,,,,,,,,,,,,,,,,,,
,,,,,,,,,,,,,,,,,1,5c73a9d92dfbdb0001b95375,2021-11-01_07h01.24.838,Agingstudy,2020.2.10,Win32,60,,,,,,,,2,0,3.3664,0,1,1,1,1,Training/FO_YI_LAY.wav,OLD,,,,,,,,,,,,,,,,,,,,,
,,,,,,,,,,,,,,,,,2,5c73a9d92dfbdb0001b95375,2021-11-01_07h01.24.838,Agingstudy,2020.2.10,Win32,60,,,,,,,,2,1,1.1164,0,2,2,2,1,Training/YO_BU_JAY.wav,NEW,,,,,,,,,,,,,,,,,,,,,
,,,,,,,,,,,,,,,,,2,5c73a9d92dfbdb0001b95375,2021-11-01_07h01.24.838,Agingstudy,2020.2.10,Win32,60,,,,,,,,2,1,0.5915,0,3,3,3,1,Training/JAY_YO_BU.wav,SIMILAR,,,,,,,,,,,,,,,,,,,,,
,,,,,,,,,,,,,,,,,1,5c73a9d92dfbdb0001b95375,2021-11-01_07h01.24.838,Agingstudy,2020.2.10,Win32,60,,,,,,,,2,0,0.8514,0,4,4,4,1,Training/FO_YI_LAY.wav,OLD,,,,,,,,,,,,,,,,,,,,,
,,,,,,,,,,,,,,,,TestWords/HA_SI_JAI.wav,,5c73a9d92dfbdb0001b95375,2021-11-01_07h01.24.838,Agingstudy,2020.2.10,Win32,60,,,,,A,,,,,,,,,,,,,space,7.9819,2,1,2.0532,0,0,0,0,1,2,NEW,NEW,,,,,,,,
,,,,,,,,,,,,,,,,TestWords/KO_SU_FAI.wav,,5c73a9d92dfbdb0001b95375,2021-11-01_07h01.24.838,Agingstudy,2020.2.10,Win32,60,,,,,A,,,,,,,,,,,,,,,2,1,1.1211,0,1,1,1,1,2,NEW,NEW,,,,,,,,
,,,,,,,,,,,,,,,,TestWords/TAI_GI_SA.wav,,5c73a9d92dfbdb0001b95375,2021-11-01_07h01.24.838,Agingstudy,2020.2.10,Win32,60,,,,,A,,,,,,,,,,,,,,,2,1,0.559,0,2,2,2,1,2,NEW,NEW,,,,,,,,
,,,,,,,,,,,,,,,,TestWords/KAI_LAY_TA.wav,,5c73a9d92dfbdb0001b95375,2021-11-01_07h01.24.838,Agingstudy,2020.2.10,Win32,60,,,,,A,,,,,,,,,,,,,,,2,1,1.1876,0,3,3,3,1,2,NEW,NEW,,,,,,,,
,,,,,,,,,,,,,,,,TestWords/RAY_PA_TI.wav,,5c73a9d92dfbdb0001b95375,2021-11-01_07h01.24.838,Agingstudy,2020.2.10,Win32,60,,,,,A,,,,,,,,,,,,,,,2,1,2.0273,0,4,4,4,1,2,NEW,NEW,,,,,,,,
,,,,,,,,,,,,,,,,TestWords/KO_SU_FAI.wav,,5c73a9d92dfbdb0001b95375,2021-11-01_07h01.24.838,Agingstudy,2020.2.10,Win32,60,,,,,A,,,,,,,,,,,,,,,2,0,11.3999,0,5,5,5,1,1,OLD,OLD,,,,,,,,
,,,,,,,,,,,,,,,,TestWords/TAI_SA_GI.wav,,5c73a9d92dfbdb0001b95375,2021-11-01_07h01.24.838,Agingstudy,2020.2.10,Win32,60,,,,,A,,,,,,,,,,,,,,,2,1,0.6853,0,6,6,6,1,2,NEW,SIMILAR,,,,,,,,
,,,,,,,,,,,,,,,,TestWords/KAI_LAY_TA.wav,,5c73a9d92dfbdb0001b95375,2021-11-01_07h01.24.838,Agingstudy,2020.2.10,Win32,60,,,,,A,,,,,,,,,,,,,,,1,1,1.2368,0,7,7,7,1,1,OLD,OLD,,,,,,,,
,,,,,,,,,,,,,,,,TestWords/NA_WAI_VU.wav,,5c73a9d92dfbdb0001b95375,2021-11-01_07h01.24.838,Agingstudy,2020.2.10,Win32,60,,,,,A,,,,,,,,,,,,,,,2,1,0.0746,0,8,8,8,1,2,NEW,NEW,,,,,,,,
,,,,,,,,,,,,,,,,TestWords/KO_SU_FAI.wav,,5c73a9d92dfbdb0001b95375,2021-11-01_07h01.24.838,Agingstudy,2020.2.10,Win32,60,,,,,A,,,,,,,,,,,,,,,2,0,1.0837,0,9,9,9,1,1,OLD,OLD,,,,,,,,
,,,,,,,,,,,,,,,,TestWords/RAY_PA_TI.wav,,5c73a9d92dfbdb0001b95375,2021-11-01_07h01.24.838,Agingstudy,2020.2.10,Win32,60,,,,,A,,,,,,,,,,,,,,,2,0,0.6059,0,10,10,10,1,1,OLD,OLD,,,,,,,,
,,,,,,,,,,,,,,,,TestWords/GI_SA_TAI.wav,,5c73a9d92dfbdb0001b95375,2021-11-01_07h01.24.838,Agingstudy,2020.2.10,Win32,60,,,,,A,,,,,,,,,,,,,,,2,1,0.3203,0,11,11,11,1,2,NEW,SIMILAR,,,,,,,,
,,,,,,,,,,,,,,,,TestWords/WAI_VU_NA.wav,,5c73a9d92dfbdb0001b95375,2021-11-01_07h01.24.838,Agingstudy,2020.2.10,Win32,60,,,,,A,,,,,,,,,,,,,,,2,1,0.4839,0,12,12,12,1,2,NEW,SIMILAR,,,,,,,,
,,,,,,,,,,,,,,,,TestWords/KAI_LAY_TA.wav,,5c73a9d92dfbdb0001b95375,2021-11-01_07h01.24.838,Agingstudy,2020.2.10,Win32,60,,,,,A,,,,,,,,,,,,,,,2,0,0.6563,0,13,13,13,1,1,OLD,OLD,,,,,,,,
,,,,,,,,,,,,,,,,TestWords/SI_VAI_CHU.wav,,5c73a9d92dfbdb0001b95375,2021-11-01_07h01.24.838,Agingstudy,2020.2.10,Win32,60,,,,,A,,,,,,,,,,,,,,,2,1,0.5121,0,14,14,14,1,2,NEW,NEW,,,,,,,,
,,,,,,,,,,,,,,,,TestWords/GI_TAI_SA.wav,,5c73a9d92dfbdb0001b95375,2021-11-01_07h01.24.838,Agingstudy,2020.2.10,Win32,60,,,,,A,,,,,,,,,,,,,,,1,0,1.4791,0,15,15,15,1,2,NEW,SIMILAR,,,,,,,,
,,,,,,,,,,,,,,,,TestWords/KO_SU_FAI.wav,,5c73a9d92dfbdb0001b95375,2021-11-01_07h01.24.838,Agingstudy,2020.2.10,Win32,60,,,,,A,,,,,,,,,,,,,,,1,1,0.601,0,16,16,16,1,1,OLD,OLD,,,,,,,,
,,,,,,,,,,,,,,,,TestWords/DA_CHU_VAI.wav,,5c73a9d92dfbdb0001b95375,2021-11-01_07h01.24.838,Agingstudy,2020.2.10,Win32,60,,,,,A,,,,,,,,,,,,,,,2,1,1.7657,0,17,17,17,1,2,NEW,NEW,,,,,,,,
,,,,,,,,,,,,,,,,TestWords/RAY_PA_TI.wav,,5c73a9d92dfbdb0001b95375,2021-11-01_07h01.24.838,Agingstudy,2020.2.10,Win32,60,,,,,A,,,,,,,,,,,,,,,1,1,0.6689,0,18,18,18,1,1,OLD,OLD,,,,,,,,
,,,,,,,,,,,,,,,,TestWords/KAI_LAY_TA.wav,,5c73a9d92dfbdb0001b95375,2021-11-01_07h01.24.838,Agingstudy,2020.2.10,Win32,60,,,,,A,,,,,,,,,,,,,,,2,0,0.9504,0,19,19,19,1,1,OLD,OLD,,,,,,,,
,,,,,,,,,,,,,,,,TestWords/WAI_NA_VU.wav,,5c73a9d92dfbdb0001b95375,2021-11-01_07h01.24.838,Agingstudy,2020.2.10,Win32,60,,,,,A,,,,,,,,,,,,,,,1,0,0.5966,0,20,20,20,1,2,NEW,SIMILAR,,,,,,,,
,,,,,,,,,,,,,,,,TestWords/KO_SU_FAI.wav,,5c73a9d92dfbdb0001b95375,2021-11-01_07h01.24.838,Agingstudy,2020.2.10,Win32,60,,,,,A,,,,,,,,,,,,,,,1,1,0.351,0,21,21,21,1,1,OLD,OLD,,,,,,,,
,,,,,,,,,,,,,,,,TestWords/SA_TAI_GI.wav,,5c73a9d92dfbdb0001b95375,2021-11-01_07h01.24.838,Agingstudy,2020.2.10,Win32,60,,,,,A,,,,,,,,,,,,,,,2,1,0.789,0,22,22,22,1,2,NEW,SIMILAR,,,,,,,,
,,,,,,,,,,,,,,,,TestWords/RAY_PA_TI.wav,,5c73a9d92dfbdb0001b95375,2021-11-01_07h01.24.838,Agingstudy,2020.2.10,Win32,60,,,,,A,,,,,,,,,,,,,,,1,1,0.3487,0,23,23,23,1,1,OLD,OLD,,,,,,,,
,,,,,,,,,,,,,,,,TestWords/VU_NA_WAI.wav,,5c73a9d92dfbdb0001b95375,2021-11-01_07h01.24.838,Agingstudy,2020.2.10,Win32,60,,,,,A,,,,,,,,,,,,,,,2,1,1.5509,0,24,24,24,1,2,NEW,SIMILAR,,,,,,,,
,,,,,,,,,,,,,,,,TestWords/KAI_LAY_TA.wav,,5c73a9d92dfbdb0001b95375,2021-11-01_07h01.24.838,Agingstudy,2020.2.10,Win32,60,,,,,A,,,,,,,,,,,,,,,1,1,0.2446,0,25,25,25,1,1,OLD,OLD,,,,,,,,
,,,,,,,,,,,,,,,,TestWords/WAI_RO_JU.wav,,5c73a9d92dfbdb0001b95375,2021-11-01_07h01.24.838,Agingstudy,2020.2.10,Win32,60,,,,,A,,,,,,,,,,,,,,,2,1,0.3146,0,26,26,26,1,2,NEW,NEW,,,,,,,,
,,,,,,,,,,,,,,,,TestWords/KO_SU_FAI.wav,,5c73a9d92dfbdb0001b95375,2021-11-01_07h01.24.838,Agingstudy,2020.2.10,Win32,60,,,,,A,,,,,,,,,,,,,,,1,1,0.501,0,27,27,27,1,1,OLD,OLD,,,,,,,,
,,,,,,,,,,,,,,,,TestWords/SA_GI_TAI.wav,,5c73a9d92dfbdb0001b95375,2021-11-01_07h01.24.838,Agingstudy,2020.2.10,Win32,60,,,,,A,,,,,,,,,,,,,,,1,0,1.5249,0,28,28,28,1,2,NEW,SIMILAR,,,,,,,,
,,,,,,,,,,,,,,,,TestWords/RAY_PA_TI.wav,,5c73a9d92dfbdb0001b95375,2021-11-01_07h01.24.838,Agingstudy,2020.2.10,Win32,60,,,,,A,,,,,,,,,,,,,,,1,1,0.2135,0,29,29,29,1,1,OLD,OLD,,,,,,,,
,,,,,,,,,,,,,,,,TestWords/GA_MU_ZI.wav,,5c73a9d92dfbdb0001b95375,2021-11-01_07h01.24.838,Agingstudy,2020.2.10,Win32,60,,,,,A,,,,,,,,,,,,,,,2,1,0.1636,0,30,30,30,1,2,NEW,NEW,,,,,,,,
,,,,,,,,,,,,,,,,TestWords/KAI_LAY_TA.wav,,5c73a9d92dfbdb0001b95375,2021-11-01_07h01.24.838,Agingstudy,2020.2.10,Win32,60,,,,,A,,,,,,,,,,,,,,,1,1,0.1513,0,31,31,31,1,1,OLD,OLD,,,,,,,,
,,,,,,,,,,,,,,,,TestWords/VU_WAI_NA.wav,,5c73a9d92dfbdb0001b95375,2021-11-01_07h01.24.838,Agingstudy,2020.2.10,Win32,60,,,,,A,,,,,,,,,,,,,,,2,1,0.7428,0,32,32,32,1,2,NEW,SIMILAR,,,,,,,,
,,,,,,,,,,,,,,,,TestWords/RAY_PA_TI.wav,,5c73a9d92dfbdb0001b95375,2021-11-01_07h01.24.838,Agingstudy,2020.2.10,Win32,60,,,,,A,,,,,,,,,,,,,,,1,1,0.2164,0,33,33,33,1,1,OLD,OLD,,,,,,,,
,,,,,,,,,,,,,,,,TestWords/LI_KAY_BA.wav,,5c73a9d92dfbdb0001b95375,2021-11-01_07h01.24.838,Agingstudy,2020.2.10,Win32,60,,,,,A,,,,,,,,,,,,,,,2,1,0.4331,0,34,34,34,1,2,NEW,NEW,,,,,,,,
,,,,,,,,,,,,,,,,TestWords/HI_NAY_VA.wav,,5c73a9d92dfbdb0001b95375,2021-11-01_07h01.24.838,Agingstudy,2020.2.10,Win32,60,,,,,A,,,,,,,,,,,,,,,2,1,0.1298,0,35,35,35,1,2,NEW,NEW,,,,,,,,
,,,,,,,,,,,,,,,,TestWords/KO_SU_FAI.wav,,5c73a9d92dfbdb0001b95375,2021-11-01_07h01.24.838,Agingstudy,2020.2.10,Win32,60,,,,,A,,,,,,,,,,,,,,,1,1,0.1837,0,36,36,36,1,1,OLD,OLD,,,,,,,,
,,,,,,,,,,,,,,,,TestWords/NA_VU_WAI.wav,,5c73a9d92dfbdb0001b95375,2021-11-01_07h01.24.838,Agingstudy,2020.2.10,Win32,60,,,,,A,,,,,,,,,,,,,,,1,0,0.2849,0,37,37,37,1,2,NEW,SIMILAR,,,,,,,,
,,,,,,,,,,,,,,,,TestWords/GA_MU_ZI.wav,,5c73a9d92dfbdb0001b95375,2021-11-01_07h01.24.838,Agingstudy,2020.2.10,Win32,60,,,,,A,,,,,,,,,,,,,,,2,0,0.8179,0,38,38,38,1,1,OLD,OLD,,,,,,,,
,,,,,,,,,,,,,,,,TestWords/KAI_LAY_TA.wav,,5c73a9d92dfbdb0001b95375,2021-11-01_07h01.24.838,Agingstudy,2020.2.10,Win32,60,,,,,A,,,,,,,,,,,,,,,1,1,0.1831,0,39,39,39,1,1,OLD,OLD,,,,,,,,
,,,,,,,,,,,,,,,,TestWords/DAI_RU_CHI.wav,,5c73a9d92dfbdb0001b95375,2021-11-01_07h01.24.838,Agingstudy,2020.2.10,Win32,60,,,,,A,,,,,,,,,,,,,,,2,1,0.1728,0,40,40,40,1,2,NEW,NEW,,,,,,,,
,,,,,,,,,,,,,,,,TestWords/NU_CHAY_SO.wav,,5c73a9d92dfbdb0001b95375,2021-11-01_07h01.24.838,Agingstudy,2020.2.10,Win32,60,,,,,A,,,,,,,,,,,,,,,2,1,0.4035,0,41,41,41,1,2,NEW,NEW,,,,,,,,
,,,,,,,,,,,,,,,,TestWords/RAY_PA_TI.wav,,5c73a9d92dfbdb0001b95375,2021-11-01_07h01.24.838,Agingstudy,2020.2.10,Win32,60,,,,,A,,,,,,,,,,,,,,,1,1,0.1024,0,42,42,42,1,1,OLD,OLD,,,,,,,,
,,,,,,,,,,,,,,,,TestWords/BA_KAY_LI.wav,,5c73a9d92dfbdb0001b95375,2021-11-01_07h01.24.838,Agingstudy,2020.2.10,Win32,60,,,,,A,,,,,,,,,,,,,,,2,1,0.059,0,43,43,43,1,2,NEW,SIMILAR,,,,,,,,
,,,,,,,,,,,,,,,,TestWords/KO_SU_FAI.wav,,5c73a9d92dfbdb0001b95375,2021-11-01_07h01.24.838,Agingstudy,2020.2.10,Win32,60,,,,,A,,,,,,,,,,,,,,,1,1,0.3155,0,44,44,44,1,1,OLD,OLD,,,,,,,,
,,,,,,,,,,,,,,,,TestWords/GA_MU_ZI.wav,,5c73a9d92dfbdb0001b95375,2021-11-01_07h01.24.838,Agingstudy,2020.2.10,Win32,60,,,,,A,,,,,,,,,,,,,,,2,0,0.1233,0,45,45,45,1,1,OLD,OLD,,,,,,,,
,,,,,,,,,,,,,,,,TestWords/CHU_LA_PAY.wav,,5c73a9d92dfbdb0001b95375,2021-11-01_07h01.24.838,Agingstudy,2020.2.10,Win32,60,,,,,A,,,,,,,,,,,,,,,2,1,0.451,0,46,46,46,1,2,NEW,NEW,,,,,,,,
,,,,,,,,,,,,,,,,TestWords/KAI_LAY_TA.wav,,5c73a9d92dfbdb0001b95375,2021-11-01_07h01.24.838,Agingstudy,2020.2.10,Win32,60,,,,,A,,,,,,,,,,,,,,,1,1,0.1441,0,47,47,47,1,1,OLD,OLD,,,,,,,,
,,,,,,,,,,,,,,,,TestWords/DAI_RU_CHI.wav,,5c73a9d92dfbdb0001b95375,2021-11-01_07h01.24.838,Agingstudy,2020.2.10,Win32,60,,,,,A,,,,,,,,,,,,,,,2,0,0.2009,0,48,48,48,1,1,OLD,OLD,,,,,,,,
,,,,,,,,,,,,,,,,TestWords/KO_SU_FAI.wav,,5c73a9d92dfbdb0001b95375,2021-11-01_07h01.24.838,Agingstudy,2020.2.10,Win32,60,,,,,A,,,,,,,,,,,,,,,1,1,0.0308,0,49,49,49,1,1,OLD,OLD,,,,,,,,
,,,,,,,,,,,,,,,,TestWords/KAY_LI_BA.wav,,5c73a9d92dfbdb0001b95375,2021-11-01_07h01.24.838,Agingstudy,2020.2.10,Win32,60,,,,,A,,,,,,,,,,,,,,,1,0,0.1994,0,50,50,50,1,2,NEW,SIMILAR,,,,,,,,
,,,,,,,,,,,,,,,,TestWords/RAY_PA_TI.wav,,5c73a9d92dfbdb0001b95375,2021-11-01_07h01.24.838,Agingstudy,2020.2.10,Win32,60,,,,,A,,,,,,,,,,,,,,,1,1,0.0683,0,51,51,51,1,1,OLD,OLD,,,,,,,,
,,,,,,,,,,,,,,,,TestWords/KAI_LAY_TA.wav,,5c73a9d92dfbdb0001b95375,2021-11-01_07h01.24.838,Agingstudy,2020.2.10,Win32,60,,,,,A,,,,,,,,,,,,,,,1,1,0.3631,0,52,52,52,1,1,OLD,OLD,,,,,,,,
,,,,,,,,,,,,,,,,TestWords/HO_NAY_VA.wav,,5c73a9d92dfbdb0001b95375,2021-11-01_07h01.24.838,Agingstudy,2020.2.10,Win32,60,,,,,A,,,,,,,,,,,,,,,2,1,0.0241,0,53,53,53,1,2,NEW,NEW,,,,,,,,
,,,,,,,,,,,,,,,,TestWords/GA_MU_ZI.wav,,5c73a9d92dfbdb0001b95375,2021-11-01_07h01.24.838,Agingstudy,2020.2.10,Win32,60,,,,,A,,,,,,,,,,,,,,,1,1,0.5347,0,54,54,54,1,1,OLD,OLD,,,,,,,,
,,,,,,,,,,,,,,,,TestWords/DAI_RU_CHI.wav,,5c73a9d92dfbdb0001b95375,2021-11-01_07h01.24.838,Agingstudy,2020.2.10,Win32,60,,,,,A,,,,,,,,,,,,,,,2,0,0.1996,0,55,55,55,1,1,OLD,OLD,,,,,,,,
,,,,,,,,,,,,,,,,TestWords/MO_PU_DAY.wav,,5c73a9d92dfbdb0001b95375,2021-11-01_07h01.24.838,Agingstudy,2020.2.10,Win32,60,,,,,A,,,,,,,,,,,,,,,2,1,0.2961,0,56,56,56,1,2,NEW,NEW,,,,,,,,
,,,,,,,,,,,,,,,,TestWords/KO_SU_FAI.wav,,5c73a9d92dfbdb0001b95375,2021-11-01_07h01.24.838,Agingstudy,2020.2.10,Win32,60,,,,,A,,,,,,,,,,,,,,,1,1,0.1207,0,57,57,57,1,1,OLD,OLD,,,,,,,,
,,,,,,,,,,,,,,,,TestWords/KAY_BA_LI.wav,,5c73a9d92dfbdb0001b95375,2021-11-01_07h01.24.838,Agingstudy,2020.2.10,Win32,60,,,,,A,,,,,,,,,,,,,,,2,1,0.2296,0,58,58,58,1,2,NEW,SIMILAR,,,,,,,,
,,,,,,,,,,,,,,,,TestWords/RAY_PA_TI.wav,,5c73a9d92dfbdb0001b95375,2021-11-01_07h01.24.838,Agingstudy,2020.2.10,Win32,60,,,,,A,,,,,,,,,,,,,,,1,1,0.0802,0,59,59,59,1,1,OLD,OLD,,,,,,,,
,,,,,,,,,,,,,,,,TestWords/KAI_LAY_TA.wav,,5c73a9d92dfbdb0001b95375,2021-11-01_07h01.24.838,Agingstudy,2020.2.10,Win32,60,,,,,A,,,,,,,,,,,,,,,1,1,0.1848,0,60,60,60,1,1,OLD,OLD,,,,,,,,
,,,,,,,,,,,,,,,,TestWords/GA_MU_ZI.wav,,5c73a9d92dfbdb0001b95375,2021-11-01_07h01.24.838,Agingstudy,2020.2.10,Win32,60,,,,,A,,,,,,,,,,,,,,,2,0,0.2134,0,61,61,61,1,1,OLD,OLD,,,,,,,,
,,,,,,,,,,,,,,,,TestWords/DAY_PU_MO.wav,,5c73a9d92dfbdb0001b95375,2021-11-01_07h01.24.838,Agingstudy,2020.2.10,Win32,60,,,,,A,,,,,,,,,,,,,,,2,1,1.2173,0,62,62,62,1,2,NEW,SIMILAR,,,,,,,,
,,,,,,,,,,,,,,,,TestWords/DAI_RU_CHI.wav,,5c73a9d92dfbdb0001b95375,2021-11-01_07h01.24.838,Agingstudy,2020.2.10,Win32,60,,,,,A,,,,,,,,,,,,,,,1,1,0.383,0,63,63,63,1,1,OLD,OLD,,,,,,,,
,,,,,,,,,,,,,,,,TestWords/LI_BA_KAY.wav,,5c73a9d92dfbdb0001b95375,2021-11-01_07h01.24.838,Agingstudy,2020.2.10,Win32,60,,,,,A,,,,,,,,,,,,,,,2,1,0.0344,0,64,64,64,1,2,NEW,SIMILAR,,,,,,,,
,,,,,,,,,,,,,,,,TestWords/KAI_LAY_TA.wav,,5c73a9d92dfbdb0001b95375,2021-11-01_07h01.24.838,Agingstudy,2020.2.10,Win32,60,,,,,A,,,,,,,,,,,,,,,1,1,0.1399,0,65,65,65,1,1,OLD,OLD,,,,,,,,
,,,,,,,,,,,,,,,,TestWords/KO_SU_FAI.wav,,5c73a9d92dfbdb0001b95375,2021-11-01_07h01.24.838,Agingstudy,2020.2.10,Win32,60,,,,,A,,,,,,,,,,,,,,,1,1,0.2524,0,66,66,66,1,1,OLD,OLD,,,,,,,,
,,,,,,,,,,,,,,,,TestWords/DAY_MO_PU.wav,,5c73a9d92dfbdb0001b95375,2021-11-01_07h01.24.838,Agingstudy,2020.2.10,Win32,60,,,,,A,,,,,,,,,,,,,,,2,1,0.1797,0,67,67,67,1,2,NEW,SIMILAR,,,,,,,,
,,,,,,,,,,,,,,,,TestWords/RAY_PA_TI.wav,,5c73a9d92dfbdb0001b95375,2021-11-01_07h01.24.838,Agingstudy,2020.2.10,Win32,60,,,,,A,,,,,,,,,,,,,,,1,1,0.2213,0,68,68,68,1,1,OLD,OLD,,,,,,,,
,,,,,,,,,,,,,,,,TestWords/GA_MU_ZI.wav,,5c73a9d92dfbdb0001b95375,2021-11-01_07h01.24.838,Agingstudy,2020.2.10,Win32,60,,,,,A,,,,,,,,,,,,,,,1,1,0.2854,0,69,69,69,1,1,OLD,OLD,,,,,,,,
,,,,,,,,,,,,,,,,TestWords/BA_LI_KAY.wav,,5c73a9d92dfbdb0001b95375,2021-11-01_07h01.24.838,Agingstudy,2020.2.10,Win32,60,,,,,A,,,,,,,,,,,,,,,2,1,0.4688,0,70,70,70,1,2,NEW,SIMILAR,,,,,,,,
,,,,,,,,,,,,,,,,TestWords/DAI_RU_CHI.wav,,5c73a9d92dfbdb0001b95375,2021-11-01_07h01.24.838,Agingstudy,2020.2.10,Win32,60,,,,,A,,,,,,,,,,,,,,,1,1,1.5383,0,71,71,71,1,1,OLD,OLD,,,,,,,,
,,,,,,,,,,,,,,,,TestWords/LU_HAI_BO.wav,,5c73a9d92dfbdb0001b95375,2021-11-01_07h01.24.838,Agingstudy,2020.2.10,Win32,60,,,,,A,,,,,,,,,,,,,,,2,1,0.1517,0,72,72,72,1,2,NEW,NEW,,,,,,,,
,,,,,,,,,,,,,,,,TestWords/RAY_PA_TI.wav,,5c73a9d92dfbdb0001b95375,2021-11-01_07h01.24.838,Agingstudy,2020.2.10,Win32,60,,,,,A,,,,,,,,,,,,,,,1,1,0.1437,0,73,73,73,1,1,OLD,OLD,,,,,,,,
,,,,,,,,,,,,,,,,TestWords/GA_MU_ZI.wav,,5c73a9d92dfbdb0001b95375,2021-11-01_07h01.24.838,Agingstudy,2020.2.10,Win32,60,,,,,A,,,,,,,,,,,,,,,1,1,0.5509,0,74,74,74,1,1,OLD,OLD,,,,,,,,
,,,,,,,,,,,,,,,,TestWords/MO_DAY_PU.wav,,5c73a9d92dfbdb0001b95375,2021-11-01_07h01.24.838,Agingstudy,2020.2.10,Win32,60,,,,,A,,,,,,,,,,,,,,,2,1,0.073,0,75,75,75,1,2,NEW,SIMILAR,,,,,,,,
,,,,,,,,,,,,,,,,TestWords/DAI_RU_CHI.wav,,5c73a9d92dfbdb0001b95375,2021-11-01_07h01.24.838,Agingstudy,2020.2.10,Win32,60,,,,,A,,,,,,,,,,,,,,,1,1,0.1859,0,76,76,76,1,1,OLD,OLD,,,,,,,,
,,,,,,,,,,,,,,,,TestWords/ZO_FU_RAI.wav,,5c73a9d92dfbdb0001b95375,2021-11-01_07h01.24.838,Agingstudy,2020.2.10,Win32,60,,,,,A,,,,,,,,,,,,,,,2,1,0.1921,0,77,77,77,1,2,NEW,NEW,,,,,,,,
,,,,,,,,,,,,,,,,TestWords/NO_WA_BAY.wav,,5c73a9d92dfbdb0001b95375,2021-11-01_07h01.24.838,Agingstudy,2020.2.10,Win32,60,,,,,A,,,,,,,,,,,,,,,2,1,0.1343,0,78,78,78,1,2,NEW,NEW,,,,,,,,
,,,,,,,,,,,,,,,,TestWords/GA_MU_ZI.wav,,5c73a9d92dfbdb0001b95375,2021-11-01_07h01.24.838,Agingstudy,2020.2.10,Win32,60,,,,,A,,,,,,,,,,,,,,,1,1,0.2741,0,79,79,79,1,1,OLD,OLD,,,,,,,,
,,,,,,,,,,,,,,,,TestWords/DAI_RU_CHI.wav,,5c73a9d92dfbdb0001b95375,2021-11-01_07h01.24.838,Agingstudy,2020.2.10,Win32,60,,,,,A,,,,,,,,,,,,,,,1,1,0.1151,0,80,80,80,1,1,OLD,OLD,,,,,,,,
,,,,,,,,,,,,,,,,TestWords/PU_DAY_MO.wav,,5c73a9d92dfbdb0001b95375,2021-11-01_07h01.24.838,Agingstudy,2020.2.10,Win32,60,,,,,A,,,,,,,,,,,,,,,2,1,0.0848,0,81,81,81,1,2,NEW,SIMILAR,,,,,,,,
,,,,,,,,,,,,,,,,TestWords/RAI_ZO_FU.wav,,5c73a9d92dfbdb0001b95375,2021-11-01_07h01.24.838,Agingstudy,2020.2.10,Win32,60,,,,,A,,,,,,,,,,,,,,,2,1,0.5038,0,82,82,82,1,2,NEW,SIMILAR,,,,,,,,
,,,,,,,,,,,,,,,,TestWords/GA_MU_ZI.wav,,5c73a9d92dfbdb0001b95375,2021-11-01_07h01.24.838,Agingstudy,2020.2.10,Win32,60,,,,,A,,,,,,,,,,,,,,,1,1,0.1367,0,83,83,83,1,1,OLD,OLD,,,,,,,,
,,,,,,,,,,,,,,,,TestWords/PAI_LU_WA.wav,,5c73a9d92dfbdb0001b95375,2021-11-01_07h01.24.838,Agingstudy,2020.2.10,Win32,60,,,,,A,,,,,,,,,,,,,,,2,1,0.2514,0,84,84,84,1,2,NEW,NEW,,,,,,,,
,,,,,,,,,,,,,,,,TestWords/PU_MO_DAY.wav,,5c73a9d92dfbdb0001b95375,2021-11-01_07h01.24.838,Agingstudy,2020.2.10,Win32,60,,,,,A,,,,,,,,,,,,,,,2,1,0.2637,0,85,85,85,1,2,NEW,SIMILAR,,,,,,,,
,,,,,,,,,,,,,,,,TestWords/DAI_RU_CHI.wav,,5c73a9d92dfbdb0001b95375,2021-11-01_07h01.24.838,Agingstudy,2020.2.10,Win32,60,,,,,A,,,,,,,,,,,,,,,1,1,0.1356,0,86,86,86,1,1,OLD,OLD,,,,,,,,
,,,,,,,,,,,,,,,,TestWords/ZO_RAI_FU.wav,,5c73a9d92dfbdb0001b95375,2021-11-01_07h01.24.838,Agingstudy,2020.2.10,Win32,60,,,,,A,,,,,,,,,,,,,,,2,1,0.1345,0,87,87,87,1,2,NEW,SIMILAR,,,,,,,,
,,,,,,,,,,,,,,,,TestWords/FI_GU_CHA.wav,,5c73a9d92dfbdb0001b95375,2021-11-01_07h01.24.838,Agingstudy,2020.2.10,Win32,60,,,,,A,,,,,,,,,,,,,,,2,1,0.1947,0,88,88,88,1,2,NEW,NEW,,,,,,,,
,,,,,,,,,,,,,,,,TestWords/GA_MU_ZI.wav,,5c73a9d92dfbdb0001b95375,2021-11-01_07h01.24.838,Agingstudy,2020.2.10,Win32,60,,,,,A,,,,,,,,,,,,,,,1,1,0.5052,0,89,89,89,1,1,OLD,OLD,,,,,,,,
,,,,,,,,,,,,,,,,TestWords/DAI_RU_CHI.wav,,5c73a9d92dfbdb0001b95375,2021-11-01_07h01.24.838,Agingstudy,2020.2.10,Win32,60,,,,,A,,,,,,,,,,,,,,,1,1,0.1683,0,90,90,90,1,1,OLD,OLD,,,,,,,,
,,,,,,,,,,,,,,,,TestWords/FU_RAI_ZO.wav,,5c73a9d92dfbdb0001b95375,2021-11-01_07h01.24.838,Agingstudy,2020.2.10,Win32,60,,,,,A,,,,,,,,,,,,,,,2,1,0.2852,0,91,91,91,1,2,NEW,SIMILAR,,,,,,,,
,,,,,,,,,,,,,,,,TestWords/GU_CHAI_PI.wav,,5c73a9d92dfbdb0001b95375,2021-11-01_07h01.24.838,Agingstudy,2020.2.10,Win32,60,,,,,A,,,,,,,,,,,,,,,2,1,1.3355,0,92,92,92,1,2,NEW,NEW,,,,,,,,
,,,,,,,,,,,,,,,,TestWords/GA_MU_ZI.wav,,5c73a9d92dfbdb0001b95375,2021-11-01_07h01.24.838,Agingstudy,2020.2.10,Win32,60,,,,,A,,,,,,,,,,,,,,,1,1,0.0014,0,93,93,93,1,1,OLD,OLD,,,,,,,,
,,,,,,,,,,,,,,,,TestWords/DAI_RU_CHI.wav,,5c73a9d92dfbdb0001b95375,2021-11-01_07h01.24.838,Agingstudy,2020.2.10,Win32,60,,,,,A,,,,,,,,,,,,,,,1,1,0.1042,0,94,94,94,1,1,OLD,OLD,,,,,,,,
,,,,,,,,,,,,,,,,TestWords/FU_ZO_RAI.wav,,5c73a9d92dfbdb0001b95375,2021-11-01_07h01.24.838,Agingstudy,2020.2.10,Win32,60,,,,,A,,,,,,,,,,,,,,,2,1,0.2504,0,95,95,95,1,2,NEW,SIMILAR,,,,,,,,
,,,,,,,,,,,,,,,,TestWords/VAI_HO_LA.wav,,5c73a9d92dfbdb0001b95375,2021-11-01_07h01.24.838,Agingstudy,2020.2.10,Win32,60,,,,,A,,,,,,,,,,,,,,,2,1,0.4703,0,96,96,96,1,2,NEW,NEW,,,,,,,,
,,,,,,,,,,,,,,,,TestWords/DAI_RU_CHI.wav,,5c73a9d92dfbdb0001b95375,2021-11-01_07h01.24.838,Agingstudy,2020.2.10,Win32,60,,,,,A,,,,,,,,,,,,,,,1,1,0.1202,0,97,97,97,1,1,OLD,OLD,,,,,,,,
,,,,,,,,,,,,,,,,TestWords/LA_ZAY_CHAI.wav,,5c73a9d92dfbdb0001b95375,2021-11-01_07h01.24.838,Agingstudy,2020.2.10,Win32,60,,,,,A,,,,,,,,,,,,,,,2,1,0.8856,0,98,98,98,1,2,NEW,NEW,,,,,,,,
,,,,,,,,,,,,,,,,TestWords/RAI_FU_ZO.wav,,5c73a9d92dfbdb0001b95375,2021-11-01_07h01.24.838,Agingstudy,2020.2.10,Win32,60,,,,,A,,,,,,,,,,,,,,,1,0,0.1076,0,99,99,99,1,2,NEW,SIMILAR,,,,,,,,
,,,,,,,,,,,,,,,,,,5c73a9d92dfbdb0001b95375,2021-11-01_07h01.24.838,Agingstudy,2020.2.10,Win32,60,,,,,,,,,,,,,,,,,,,,,,,,,,,,,,,0,0,0,0,1,,,
,,,,,,,,,,,,,,,,,,5c73a9d92dfbdb0001b95375,2021-11-01_07h01.24.838,Agingstudy,2020.2.10,Win32,60,,,,,,,,,,,,,,,,,,,,,,,,,,,,,,,,,,,,return,22.3292,
