Welcome0Continue.keys,Welcome0Continue.rt,SoundCheckBegin.keys,SoundCheckBegin.rt,SoundCheckEndKey.keys,SoundCheckEndKey.rt,HeadphoneContinueKey.keys,HeadphoneContinueKey.rt,CheckResp.keys,CheckResp.corr,CheckResp.rt,HeadphoneLoop.thisRepN,HeadphoneLoop.thisTrialN,HeadphoneLoop.thisN,HeadphoneLoop.thisIndex,HeadphoneLoop.ran,File,Correct,participant,date,expName,psychopyVersion,OS,frameRate,ContinueKey8.keys,ContinueKey8.rt,MSTWelcomeContKey.keys,MSTWelcomeContKey.rt,Condition,MSTTrainIntroKey.keys,MSTTrainIntroKey.rt,MSTTrainKeys.keys,MSTTrainKeys.corr,MSTTrainKeys.rt,MSTTrainLoop.thisRepN,MSTTrainLoop.thisTrialN,MSTTrainLoop.thisN,MSTTrainLoop.thisIndex,MSTTrainLoop.ran,SoundFile,Type,MSTTestBeginKey.keys,MSTTestBeginKey.rt,MST_resp.keys,MST_resp.corr,MST_resp.rt,MSTPlayLoop.thisRepN,MSTPlayLoop.thisTrialN,MSTPlayLoop.thisN,MSTPlayLoop.thisIndex,MSTPlayLoop.ran,WordCorrect,Correct_type,WordType,MSTLoop.thisRepN,MSTLoop.thisTrialN,MSTLoop.thisN,MSTLoop.thisIndex,MSTLoop.ran,EndAllKey.keys,EndAllKey.rt,FeedbackResp.text
space,14.4683,space,7.3537,space,7.5832,space,18.0615,3,1,3.4357,0,0,0,4,1,Headphone/t3_1.wav,3,5cb929bfebd17d0017e7f848,2021-08-05_23h27.25.212,Agingstudy,2020.2.10,MacIntel,60,,,,,,,,,,,,,,,,,,,,,,,,,,,,,,,,,,,,,,
,,,,,,,,2,1,1.5059,0,1,1,3,1,Headphone/t2_2.wav,2,5cb929bfebd17d0017e7f848,2021-08-05_23h27.25.212,Agingstudy,2020.2.10,MacIntel,60,,,,,,,,,,,,,,,,,,,,,,,,,,,,,,,,,,,,,,
,,,,,,,,1,1,0.785,0,2,2,1,1,Headphone/t1_2.wav,1,5cb929bfebd17d0017e7f848,2021-08-05_23h27.25.212,Agingstudy,2020.2.10,MacIntel,60,,,,,,,,,,,,,,,,,,,,,,,,,,,,,,,,,,,,,,
,,,,,,,,3,1,1.4769,0,3,3,5,1,Headphone/t3_2.wav,3,5cb929bfebd17d0017e7f848,2021-08-05_23h27.25.212,Agingstudy,2020.2.10,MacIntel,60,,,,,,,,,,,,,,,,,,,,,,,,,,,,,,,,,,,,,,
,,,,,,,,2,1,0.6667,0,4,4,2,1,Headphone/t2_1.wav,2,5cb929bfebd17d0017e7f848,2021-08-05_23h27.25.212,Agingstudy,2020.2.10,MacIntel,60,,,,,,,,,,,,,,,,,,,,,,,,,,,,,,,,,,,,,,
,,,,,,,,1,1,1.5898,0,5,5,0,1,Headphone/t1_1.wav,1,5cb929bfebd17d0017e7f848,2021-08-05_23h27.25.212,Agingstudy,2020.2.10,MacIntel,60,,,,,,,,,,,,,,,,,,,,,,,,,,,,,,,,,,,,,,
,,,,,,,,,,,,,,,,,2,5cb929bfebd17d0017e7f848,2021-08-05_23h27.25.212,Agingstudy,2020.2.10,MacIntel,60,space,20.3926,space,10.0479,1,space,5.6984,1,0,5.2783,0,0,0,0,1,Training/FO_YI_LAY.wav,NEW,,,,,,,,,,,,,,,,,,,,,
,,,,,,,,,,,,,,,,,1,5cb929bfebd17d0017e7f848,2021-08-05_23h27.25.212,Agingstudy,2020.2.10,MacIntel,60,,,,,,,,1,1,1.9393,0,1,1,1,1,Training/FO_YI_LAY.wav,OLD,,,,,,,,,,,,,,,,,,,,,
,,,,,,,,,,,,,,,,,2,5cb929bfebd17d0017e7f848,2021-08-05_23h27.25.212,Agingstudy,2020.2.10,MacIntel,60,,,,,,,,2,1,1.469,0,2,2,2,1,Training/YO_BU_JAY.wav,NEW,,,,,,,,,,,,,,,,,,,,,
,,,,,,,,,,,,,,,,,2,5cb929bfebd17d0017e7f848,2021-08-05_23h27.25.212,Agingstudy,2020.2.10,MacIntel,60,,,,,,,,2,1,4.0151,0,3,3,3,1,Training/JAY_YO_BU.wav,SIMILAR,,,,,,,,,,,,,,,,,,,,,
,,,,,,,,,,,,,,,,,1,5cb929bfebd17d0017e7f848,2021-08-05_23h27.25.212,Agingstudy,2020.2.10,MacIntel,60,,,,,,,,1,1,2.2737,0,4,4,4,1,Training/FO_YI_LAY.wav,OLD,,,,,,,,,,,,,,,,,,,,,
,,,,,,,,,,,,,,,,TestWords/HA_SI_JAI.wav,,5cb929bfebd17d0017e7f848,2021-08-05_23h27.25.212,Agingstudy,2020.2.10,MacIntel,60,,,,,A,,,,,,,,,,,,,space,10.2992,2,1,3.6678,0,0,0,0,1,2,NEW,NEW,,,,,,,,
,,,,,,,,,,,,,,,,TestWords/KO_SU_FAI.wav,,5cb929bfebd17d0017e7f848,2021-08-05_23h27.25.212,Agingstudy,2020.2.10,MacIntel,60,,,,,A,,,,,,,,,,,,,,,2,1,1.3631,0,1,1,1,1,2,NEW,NEW,,,,,,,,
,,,,,,,,,,,,,,,,TestWords/TAI_GI_SA.wav,,5cb929bfebd17d0017e7f848,2021-08-05_23h27.25.212,Agingstudy,2020.2.10,MacIntel,60,,,,,A,,,,,,,,,,,,,,,2,1,0.7692,0,2,2,2,1,2,NEW,NEW,,,,,,,,
,,,,,,,,,,,,,,,,TestWords/KAI_LAY_TA.wav,,5cb929bfebd17d0017e7f848,2021-08-05_23h27.25.212,Agingstudy,2020.2.10,MacIntel,60,,,,,A,,,,,,,,,,,,,,,2,1,0.5701,0,3,3,3,1,2,NEW,NEW,,,,,,,,
,,,,,,,,,,,,,,,,TestWords/RAY_PA_TI.wav,,5cb929bfebd17d0017e7f848,2021-08-05_23h27.25.212,Agingstudy,2020.2.10,MacIntel,60,,,,,A,,,,,,,,,,,,,,,2,1,0.6891,0,4,4,4,1,2,NEW,NEW,,,,,,,,
,,,,,,,,,,,,,,,,TestWords/KO_SU_FAI.wav,,5cb929bfebd17d0017e7f848,2021-08-05_23h27.25.212,Agingstudy,2020.2.10,MacIntel,60,,,,,A,,,,,,,,,,,,,,,2,0,0.4183,0,5,5,5,1,1,OLD,OLD,,,,,,,,
,,,,,,,,,,,,,,,,TestWords/TAI_SA_GI.wav,,5cb929bfebd17d0017e7f848,2021-08-05_23h27.25.212,Agingstudy,2020.2.10,MacIntel,60,,,,,A,,,,,,,,,,,,,,,2,1,0.7455,0,6,6,6,1,2,NEW,SIMILAR,,,,,,,,
,,,,,,,,,,,,,,,,TestWords/KAI_LAY_TA.wav,,5cb929bfebd17d0017e7f848,2021-08-05_23h27.25.212,Agingstudy,2020.2.10,MacIntel,60,,,,,A,,,,,,,,,,,,,,,1,1,1.0688,0,7,7,7,1,1,OLD,OLD,,,,,,,,
,,,,,,,,,,,,,,,,TestWords/NA_WAI_VU.wav,,5cb929bfebd17d0017e7f848,2021-08-05_23h27.25.212,Agingstudy,2020.2.10,MacIntel,60,,,,,A,,,,,,,,,,,,,,,1,0,0.8811,0,8,8,8,1,2,NEW,NEW,,,,,,,,
,,,,,,,,,,,,,,,,TestWords/KO_SU_FAI.wav,,5cb929bfebd17d0017e7f848,2021-08-05_23h27.25.212,Agingstudy,2020.2.10,MacIntel,60,,,,,A,,,,,,,,,,,,,,,1,1,1.3848,0,9,9,9,1,1,OLD,OLD,,,,,,,,
,,,,,,,,,,,,,,,,TestWords/RAY_PA_TI.wav,,5cb929bfebd17d0017e7f848,2021-08-05_23h27.25.212,Agingstudy,2020.2.10,MacIntel,60,,,,,A,,,,,,,,,,,,,,,2,0,0.873,0,10,10,10,1,1,OLD,OLD,,,,,,,,
,,,,,,,,,,,,,,,,TestWords/GI_SA_TAI.wav,,5cb929bfebd17d0017e7f848,2021-08-05_23h27.25.212,Agingstudy,2020.2.10,MacIntel,60,,,,,A,,,,,,,,,,,,,,,2,1,0.4265,0,11,11,11,1,2,NEW,SIMILAR,,,,,,,,
,,,,,,,,,,,,,,,,TestWords/WAI_VU_NA.wav,,5cb929bfebd17d0017e7f848,2021-08-05_23h27.25.212,Agingstudy,2020.2.10,MacIntel,60,,,,,A,,,,,,,,,,,,,,,1,0,1.0203,0,12,12,12,1,2,NEW,SIMILAR,,,,,,,,
,,,,,,,,,,,,,,,,TestWords/KAI_LAY_TA.wav,,5cb929bfebd17d0017e7f848,2021-08-05_23h27.25.212,Agingstudy,2020.2.10,MacIntel,60,,,,,A,,,,,,,,,,,,,,,1,1,0.7735,0,13,13,13,1,1,OLD,OLD,,,,,,,,
,,,,,,,,,,,,,,,,TestWords/SI_VAI_CHU.wav,,5cb929bfebd17d0017e7f848,2021-08-05_23h27.25.212,Agingstudy,2020.2.10,MacIntel,60,,,,,A,,,,,,,,,,,,,,,2,1,2.1882,0,14,14,14,1,2,NEW,NEW,,,,,,,,
,,,,,,,,,,,,,,,,TestWords/GI_TAI_SA.wav,,5cb929bfebd17d0017e7f848,2021-08-05_23h27.25.212,Agingstudy,2020.2.10,MacIntel,60,,,,,A,,,,,,,,,,,,,,,2,1,0.9381,0,15,15,15,1,2,NEW,SIMILAR,,,,,,,,
,,,,,,,,,,,,,,,,TestWords/KO_SU_FAI.wav,,5cb929bfebd17d0017e7f848,2021-08-05_23h27.25.212,Agingstudy,2020.2.10,MacIntel,60,,,,,A,,,,,,,,,,,,,,,1,1,1.3533,0,16,16,16,1,1,OLD,OLD,,,,,,,,
,,,,,,,,,,,,,,,,TestWords/DA_CHU_VAI.wav,,5cb929bfebd17d0017e7f848,2021-08-05_23h27.25.212,Agingstudy,2020.2.10,MacIntel,60,,,,,A,,,,,,,,,,,,,,,1,0,2.5792,0,17,17,17,1,2,NEW,NEW,,,,,,,,
,,,,,,,,,,,,,,,,TestWords/RAY_PA_TI.wav,,5cb929bfebd17d0017e7f848,2021-08-05_23h27.25.212,Agingstudy,2020.2.10,MacIntel,60,,,,,A,,,,,,,,,,,,,,,1,1,1.5862,0,18,18,18,1,1,OLD,OLD,,,,,,,,
,,,,,,,,,,,,,,,,TestWords/KAI_LAY_TA.wav,,5cb929bfebd17d0017e7f848,2021-08-05_23h27.25.212,Agingstudy,2020.2.10,MacIntel,60,,,,,A,,,,,,,,,,,,,,,1,1,1.0668,0,19,19,19,1,1,OLD,OLD,,,,,,,,
,,,,,,,,,,,,,,,,TestWords/WAI_NA_VU.wav,,5cb929bfebd17d0017e7f848,2021-08-05_23h27.25.212,Agingstudy,2020.2.10,MacIntel,60,,,,,A,,,,,,,,,,,,,,,1,0,0.8576,0,20,20,20,1,2,NEW,SIMILAR,,,,,,,,
,,,,,,,,,,,,,,,,TestWords/KO_SU_FAI.wav,,5cb929bfebd17d0017e7f848,2021-08-05_23h27.25.212,Agingstudy,2020.2.10,MacIntel,60,,,,,A,,,,,,,,,,,,,,,1,1,0.7539,0,21,21,21,1,1,OLD,OLD,,,,,,,,
,,,,,,,,,,,,,,,,TestWords/SA_TAI_GI.wav,,5cb929bfebd17d0017e7f848,2021-08-05_23h27.25.212,Agingstudy,2020.2.10,MacIntel,60,,,,,A,,,,,,,,,,,,,,,1,0,0.7093,0,22,22,22,1,2,NEW,SIMILAR,,,,,,,,
,,,,,,,,,,,,,,,,TestWords/RAY_PA_TI.wav,,5cb929bfebd17d0017e7f848,2021-08-05_23h27.25.212,Agingstudy,2020.2.10,MacIntel,60,,,,,A,,,,,,,,,,,,,,,1,1,0.7528,0,23,23,23,1,1,OLD,OLD,,,,,,,,
,,,,,,,,,,,,,,,,TestWords/VU_NA_WAI.wav,,5cb929bfebd17d0017e7f848,2021-08-05_23h27.25.212,Agingstudy,2020.2.10,MacIntel,60,,,,,A,,,,,,,,,,,,,,,2,1,2.8829,0,24,24,24,1,2,NEW,SIMILAR,,,,,,,,
,,,,,,,,,,,,,,,,TestWords/KAI_LAY_TA.wav,,5cb929bfebd17d0017e7f848,2021-08-05_23h27.25.212,Agingstudy,2020.2.10,MacIntel,60,,,,,A,,,,,,,,,,,,,,,1,1,1.8847,0,25,25,25,1,1,OLD,OLD,,,,,,,,
,,,,,,,,,,,,,,,,TestWords/WAI_RO_JU.wav,,5cb929bfebd17d0017e7f848,2021-08-05_23h27.25.212,Agingstudy,2020.2.10,MacIntel,60,,,,,A,,,,,,,,,,,,,,,1,0,1.2097,0,26,26,26,1,2,NEW,NEW,,,,,,,,
,,,,,,,,,,,,,,,,TestWords/KO_SU_FAI.wav,,5cb929bfebd17d0017e7f848,2021-08-05_23h27.25.212,Agingstudy,2020.2.10,MacIntel,60,,,,,A,,,,,,,,,,,,,,,1,1,0.7894,0,27,27,27,1,1,OLD,OLD,,,,,,,,
,,,,,,,,,,,,,,,,TestWords/SA_GI_TAI.wav,,5cb929bfebd17d0017e7f848,2021-08-05_23h27.25.212,Agingstudy,2020.2.10,MacIntel,60,,,,,A,,,,,,,,,,,,,,,1,0,2.3036,0,28,28,28,1,2,NEW,SIMILAR,,,,,,,,
,,,,,,,,,,,,,,,,TestWords/RAY_PA_TI.wav,,5cb929bfebd17d0017e7f848,2021-08-05_23h27.25.212,Agingstudy,2020.2.10,MacIntel,60,,,,,A,,,,,,,,,,,,,,,1,1,0.7086,0,29,29,29,1,1,OLD,OLD,,,,,,,,
,,,,,,,,,,,,,,,,TestWords/GA_MU_ZI.wav,,5cb929bfebd17d0017e7f848,2021-08-05_23h27.25.212,Agingstudy,2020.2.10,MacIntel,60,,,,,A,,,,,,,,,,,,,,,2,1,0.7957,0,30,30,30,1,2,NEW,NEW,,,,,,,,
,,,,,,,,,,,,,,,,TestWords/KAI_LAY_TA.wav,,5cb929bfebd17d0017e7f848,2021-08-05_23h27.25.212,Agingstudy,2020.2.10,MacIntel,60,,,,,A,,,,,,,,,,,,,,,2,0,1.0377,0,31,31,31,1,1,OLD,OLD,,,,,,,,
,,,,,,,,,,,,,,,,TestWords/VU_WAI_NA.wav,,5cb929bfebd17d0017e7f848,2021-08-05_23h27.25.212,Agingstudy,2020.2.10,MacIntel,60,,,,,A,,,,,,,,,,,,,,,2,1,0.9105,0,32,32,32,1,2,NEW,SIMILAR,,,,,,,,
,,,,,,,,,,,,,,,,TestWords/RAY_PA_TI.wav,,5cb929bfebd17d0017e7f848,2021-08-05_23h27.25.212,Agingstudy,2020.2.10,MacIntel,60,,,,,A,,,,,,,,,,,,,,,1,1,0.4865,0,33,33,33,1,1,OLD,OLD,,,,,,,,
,,,,,,,,,,,,,,,,TestWords/LI_KAY_BA.wav,,5cb929bfebd17d0017e7f848,2021-08-05_23h27.25.212,Agingstudy,2020.2.10,MacIntel,60,,,,,A,,,,,,,,,,,,,,,2,1,0.7082,0,34,34,34,1,2,NEW,NEW,,,,,,,,
,,,,,,,,,,,,,,,,TestWords/HI_NAY_VA.wav,,5cb929bfebd17d0017e7f848,2021-08-05_23h27.25.212,Agingstudy,2020.2.10,MacIntel,60,,,,,A,,,,,,,,,,,,,,,2,1,0.4534,0,35,35,35,1,2,NEW,NEW,,,,,,,,
,,,,,,,,,,,,,,,,TestWords/KO_SU_FAI.wav,,5cb929bfebd17d0017e7f848,2021-08-05_23h27.25.212,Agingstudy,2020.2.10,MacIntel,60,,,,,A,,,,,,,,,,,,,,,1,1,1.1438,0,36,36,36,1,1,OLD,OLD,,,,,,,,
,,,,,,,,,,,,,,,,TestWords/NA_VU_WAI.wav,,5cb929bfebd17d0017e7f848,2021-08-05_23h27.25.212,Agingstudy,2020.2.10,MacIntel,60,,,,,A,,,,,,,,,,,,,,,2,1,2.3533,0,37,37,37,1,2,NEW,SIMILAR,,,,,,,,
,,,,,,,,,,,,,,,,TestWords/GA_MU_ZI.wav,,5cb929bfebd17d0017e7f848,2021-08-05_23h27.25.212,Agingstudy,2020.2.10,MacIntel,60,,,,,A,,,,,,,,,,,,,,,2,0,0.7625,0,38,38,38,1,1,OLD,OLD,,,,,,,,
,,,,,,,,,,,,,,,,TestWords/KAI_LAY_TA.wav,,5cb929bfebd17d0017e7f848,2021-08-05_23h27.25.212,Agingstudy,2020.2.10,MacIntel,60,,,,,A,,,,,,,,,,,,,,,2,0,1.2551,0,39,39,39,1,1,OLD,OLD,,,,,,,,
,,,,,,,,,,,,,,,,TestWords/DAI_RU_CHI.wav,,5cb929bfebd17d0017e7f848,2021-08-05_23h27.25.212,Agingstudy,2020.2.10,MacIntel,60,,,,,A,,,,,,,,,,,,,,,2,1,0.6693,0,40,40,40,1,2,NEW,NEW,,,,,,,,
,,,,,,,,,,,,,,,,TestWords/NU_CHAY_SO.wav,,5cb929bfebd17d0017e7f848,2021-08-05_23h27.25.212,Agingstudy,2020.2.10,MacIntel,60,,,,,A,,,,,,,,,,,,,,,2,1,1.0254,0,41,41,41,1,2,NEW,NEW,,,,,,,,
,,,,,,,,,,,,,,,,TestWords/RAY_PA_TI.wav,,5cb929bfebd17d0017e7f848,2021-08-05_23h27.25.212,Agingstudy,2020.2.10,MacIntel,60,,,,,A,,,,,,,,,,,,,,,1,1,0.7425,0,42,42,42,1,1,OLD,OLD,,,,,,,,
,,,,,,,,,,,,,,,,TestWords/BA_KAY_LI.wav,,5cb929bfebd17d0017e7f848,2021-08-05_23h27.25.212,Agingstudy,2020.2.10,MacIntel,60,,,,,A,,,,,,,,,,,,,,,1,0,1.1242,0,43,43,43,1,2,NEW,SIMILAR,,,,,,,,
,,,,,,,,,,,,,,,,TestWords/KO_SU_FAI.wav,,5cb929bfebd17d0017e7f848,2021-08-05_23h27.25.212,Agingstudy,2020.2.10,MacIntel,60,,,,,A,,,,,,,,,,,,,,,1,1,0.7034,0,44,44,44,1,1,OLD,OLD,,,,,,,,
,,,,,,,,,,,,,,,,TestWords/GA_MU_ZI.wav,,5cb929bfebd17d0017e7f848,2021-08-05_23h27.25.212,Agingstudy,2020.2.10,MacIntel,60,,,,,A,,,,,,,,,,,,,,,1,1,1.1415,0,45,45,45,1,1,OLD,OLD,,,,,,,,
,,,,,,,,,,,,,,,,TestWords/CHU_LA_PAY.wav,,5cb929bfebd17d0017e7f848,2021-08-05_23h27.25.212,Agingstudy,2020.2.10,MacIntel,60,,,,,A,,,,,,,,,,,,,,,2,1,1.9521,0,46,46,46,1,2,NEW,NEW,,,,,,,,
,,,,,,,,,,,,,,,,TestWords/KAI_LAY_TA.wav,,5cb929bfebd17d0017e7f848,2021-08-05_23h27.25.212,Agingstudy,2020.2.10,MacIntel,60,,,,,A,,,,,,,,,,,,,,,1,1,0.6964,0,47,47,47,1,1,OLD,OLD,,,,,,,,
,,,,,,,,,,,,,,,,TestWords/DAI_RU_CHI.wav,,5cb929bfebd17d0017e7f848,2021-08-05_23h27.25.212,Agingstudy,2020.2.10,MacIntel,60,,,,,A,,,,,,,,,,,,,,,2,0,0.4228,0,48,48,48,1,1,OLD,OLD,,,,,,,,
,,,,,,,,,,,,,,,,TestWords/KO_SU_FAI.wav,,5cb929bfebd17d0017e7f848,2021-08-05_23h27.25.212,Agingstudy,2020.2.10,MacIntel,60,,,,,A,,,,,,,,,,,,,,,1,1,1.0173,0,49,49,49,1,1,OLD,OLD,,,,,,,,
,,,,,,,,,,,,,,,,TestWords/KAY_LI_BA.wav,,5cb929bfebd17d0017e7f848,2021-08-05_23h27.25.212,Agingstudy,2020.2.10,MacIntel,60,,,,,A,,,,,,,,,,,,,,,1,0,0.6865,0,50,50,50,1,2,NEW,SIMILAR,,,,,,,,
,,,,,,,,,,,,,,,,TestWords/RAY_PA_TI.wav,,5cb929bfebd17d0017e7f848,2021-08-05_23h27.25.212,Agingstudy,2020.2.10,MacIntel,60,,,,,A,,,,,,,,,,,,,,,1,1,0.3663,0,51,51,51,1,1,OLD,OLD,,,,,,,,
,,,,,,,,,,,,,,,,TestWords/KAI_LAY_TA.wav,,5cb929bfebd17d0017e7f848,2021-08-05_23h27.25.212,Agingstudy,2020.2.10,MacIntel,60,,,,,A,,,,,,,,,,,,,,,1,1,1.0707,0,52,52,52,1,1,OLD,OLD,,,,,,,,
,,,,,,,,,,,,,,,,TestWords/HO_NAY_VA.wav,,5cb929bfebd17d0017e7f848,2021-08-05_23h27.25.212,Agingstudy,2020.2.10,MacIntel,60,,,,,A,,,,,,,,,,,,,,,2,1,1.9089,0,53,53,53,1,2,NEW,NEW,,,,,,,,
,,,,,,,,,,,,,,,,TestWords/GA_MU_ZI.wav,,5cb929bfebd17d0017e7f848,2021-08-05_23h27.25.212,Agingstudy,2020.2.10,MacIntel,60,,,,,A,,,,,,,,,,,,,,,1,1,0.7559,0,54,54,54,1,1,OLD,OLD,,,,,,,,
,,,,,,,,,,,,,,,,TestWords/DAI_RU_CHI.wav,,5cb929bfebd17d0017e7f848,2021-08-05_23h27.25.212,Agingstudy,2020.2.10,MacIntel,60,,,,,A,,,,,,,,,,,,,,,1,1,0.6559,0,55,55,55,1,1,OLD,OLD,,,,,,,,
,,,,,,,,,,,,,,,,TestWords/MO_PU_DAY.wav,,5cb929bfebd17d0017e7f848,2021-08-05_23h27.25.212,Agingstudy,2020.2.10,MacIntel,60,,,,,A,,,,,,,,,,,,,,,2,1,2.0849,0,56,56,56,1,2,NEW,NEW,,,,,,,,
,,,,,,,,,,,,,,,,TestWords/KO_SU_FAI.wav,,5cb929bfebd17d0017e7f848,2021-08-05_23h27.25.212,Agingstudy,2020.2.10,MacIntel,60,,,,,A,,,,,,,,,,,,,,,1,1,1.7845,0,57,57,57,1,1,OLD,OLD,,,,,,,,
,,,,,,,,,,,,,,,,TestWords/KAY_BA_LI.wav,,5cb929bfebd17d0017e7f848,2021-08-05_23h27.25.212,Agingstudy,2020.2.10,MacIntel,60,,,,,A,,,,,,,,,,,,,,,1,0,0.437,0,58,58,58,1,2,NEW,SIMILAR,,,,,,,,
,,,,,,,,,,,,,,,,TestWords/RAY_PA_TI.wav,,5cb929bfebd17d0017e7f848,2021-08-05_23h27.25.212,Agingstudy,2020.2.10,MacIntel,60,,,,,A,,,,,,,,,,,,,,,1,1,0.2205,0,59,59,59,1,1,OLD,OLD,,,,,,,,
,,,,,,,,,,,,,,,,TestWords/KAI_LAY_TA.wav,,5cb929bfebd17d0017e7f848,2021-08-05_23h27.25.212,Agingstudy,2020.2.10,MacIntel,60,,,,,A,,,,,,,,,,,,,,,1,1,0.6231,0,60,60,60,1,1,OLD,OLD,,,,,,,,
,,,,,,,,,,,,,,,,TestWords/GA_MU_ZI.wav,,5cb929bfebd17d0017e7f848,2021-08-05_23h27.25.212,Agingstudy,2020.2.10,MacIntel,60,,,,,A,,,,,,,,,,,,,,,1,1,2.2358,0,61,61,61,1,1,OLD,OLD,,,,,,,,
,,,,,,,,,,,,,,,,TestWords/DAY_PU_MO.wav,,5cb929bfebd17d0017e7f848,2021-08-05_23h27.25.212,Agingstudy,2020.2.10,MacIntel,60,,,,,A,,,,,,,,,,,,,,,1,0,0.5279,0,62,62,62,1,2,NEW,SIMILAR,,,,,,,,
,,,,,,,,,,,,,,,,TestWords/DAI_RU_CHI.wav,,5cb929bfebd17d0017e7f848,2021-08-05_23h27.25.212,Agingstudy,2020.2.10,MacIntel,60,,,,,A,,,,,,,,,,,,,,,1,1,0.6243,0,63,63,63,1,1,OLD,OLD,,,,,,,,
,,,,,,,,,,,,,,,,TestWords/LI_BA_KAY.wav,,5cb929bfebd17d0017e7f848,2021-08-05_23h27.25.212,Agingstudy,2020.2.10,MacIntel,60,,,,,A,,,,,,,,,,,,,,,1,0,0.8201,0,64,64,64,1,2,NEW,SIMILAR,,,,,,,,
,,,,,,,,,,,,,,,,TestWords/KAI_LAY_TA.wav,,5cb929bfebd17d0017e7f848,2021-08-05_23h27.25.212,Agingstudy,2020.2.10,MacIntel,60,,,,,A,,,,,,,,,,,,,,,1,1,1.3855,0,65,65,65,1,1,OLD,OLD,,,,,,,,
,,,,,,,,,,,,,,,,TestWords/KO_SU_FAI.wav,,5cb929bfebd17d0017e7f848,2021-08-05_23h27.25.212,Agingstudy,2020.2.10,MacIntel,60,,,,,A,,,,,,,,,,,,,,,1,1,0.7032,0,66,66,66,1,1,OLD,OLD,,,,,,,,
,,,,,,,,,,,,,,,,TestWords/DAY_MO_PU.wav,,5cb929bfebd17d0017e7f848,2021-08-05_23h27.25.212,Agingstudy,2020.2.10,MacIntel,60,,,,,A,,,,,,,,,,,,,,,1,0,0.5351,0,67,67,67,1,2,NEW,SIMILAR,,,,,,,,
,,,,,,,,,,,,,,,,TestWords/RAY_PA_TI.wav,,5cb929bfebd17d0017e7f848,2021-08-05_23h27.25.212,Agingstudy,2020.2.10,MacIntel,60,,,,,A,,,,,,,,,,,,,,,1,1,0.3687,0,68,68,68,1,1,OLD,OLD,,,,,,,,
,,,,,,,,,,,,,,,,TestWords/GA_MU_ZI.wav,,5cb929bfebd17d0017e7f848,2021-08-05_23h27.25.212,Agingstudy,2020.2.10,MacIntel,60,,,,,A,,,,,,,,,,,,,,,1,1,0.7193,0,69,69,69,1,1,OLD,OLD,,,,,,,,
,,,,,,,,,,,,,,,,TestWords/BA_LI_KAY.wav,,5cb929bfebd17d0017e7f848,2021-08-05_23h27.25.212,Agingstudy,2020.2.10,MacIntel,60,,,,,A,,,,,,,,,,,,,,,1,0,0.6016,0,70,70,70,1,2,NEW,SIMILAR,,,,,,,,
,,,,,,,,,,,,,,,,TestWords/DAI_RU_CHI.wav,,5cb929bfebd17d0017e7f848,2021-08-05_23h27.25.212,Agingstudy,2020.2.10,MacIntel,60,,,,,A,,,,,,,,,,,,,,,1,1,0.5175,0,71,71,71,1,1,OLD,OLD,,,,,,,,
,,,,,,,,,,,,,,,,TestWords/LU_HAI_BO.wav,,5cb929bfebd17d0017e7f848,2021-08-05_23h27.25.212,Agingstudy,2020.2.10,MacIntel,60,,,,,A,,,,,,,,,,,,,,,2,1,0.7048,0,72,72,72,1,2,NEW,NEW,,,,,,,,
,,,,,,,,,,,,,,,,TestWords/RAY_PA_TI.wav,,5cb929bfebd17d0017e7f848,2021-08-05_23h27.25.212,Agingstudy,2020.2.10,MacIntel,60,,,,,A,,,,,,,,,,,,,,,1,1,0.4676,0,73,73,73,1,1,OLD,OLD,,,,,,,,
,,,,,,,,,,,,,,,,TestWords/GA_MU_ZI.wav,,5cb929bfebd17d0017e7f848,2021-08-05_23h27.25.212,Agingstudy,2020.2.10,MacIntel,60,,,,,A,,,,,,,,,,,,,,,1,1,0.3672,0,74,74,74,1,1,OLD,OLD,,,,,,,,
,,,,,,,,,,,,,,,,TestWords/MO_DAY_PU.wav,,5cb929bfebd17d0017e7f848,2021-08-05_23h27.25.212,Agingstudy,2020.2.10,MacIntel,60,,,,,A,,,,,,,,,,,,,,,1,0,1.1501,0,75,75,75,1,2,NEW,SIMILAR,,,,,,,,
,,,,,,,,,,,,,,,,TestWords/DAI_RU_CHI.wav,,5cb929bfebd17d0017e7f848,2021-08-05_23h27.25.212,Agingstudy,2020.2.10,MacIntel,60,,,,,A,,,,,,,,,,,,,,,1,1,0.7525,0,76,76,76,1,1,OLD,OLD,,,,,,,,
,,,,,,,,,,,,,,,,TestWords/ZO_FU_RAI.wav,,5cb929bfebd17d0017e7f848,2021-08-05_23h27.25.212,Agingstudy,2020.2.10,MacIntel,60,,,,,A,,,,,,,,,,,,,,,2,1,0.8189,0,77,77,77,1,2,NEW,NEW,,,,,,,,
,,,,,,,,,,,,,,,,TestWords/NO_WA_BAY.wav,,5cb929bfebd17d0017e7f848,2021-08-05_23h27.25.212,Agingstudy,2020.2.10,MacIntel,60,,,,,A,,,,,,,,,,,,,,,2,1,0.6523,0,78,78,78,1,2,NEW,NEW,,,,,,,,
,,,,,,,,,,,,,,,,TestWords/GA_MU_ZI.wav,,5cb929bfebd17d0017e7f848,2021-08-05_23h27.25.212,Agingstudy,2020.2.10,MacIntel,60,,,,,A,,,,,,,,,,,,,,,1,1,1.4031,0,79,79,79,1,1,OLD,OLD,,,,,,,,
,,,,,,,,,,,,,,,,TestWords/DAI_RU_CHI.wav,,5cb929bfebd17d0017e7f848,2021-08-05_23h27.25.212,Agingstudy,2020.2.10,MacIntel,60,,,,,A,,,,,,,,,,,,,,,1,1,1.9352,0,80,80,80,1,1,OLD,OLD,,,,,,,,
,,,,,,,,,,,,,,,,TestWords/PU_DAY_MO.wav,,5cb929bfebd17d0017e7f848,2021-08-05_23h27.25.212,Agingstudy,2020.2.10,MacIntel,60,,,,,A,,,,,,,,,,,,,,,2,1,1.269,0,81,81,81,1,2,NEW,SIMILAR,,,,,,,,
,,,,,,,,,,,,,,,,TestWords/RAI_ZO_FU.wav,,5cb929bfebd17d0017e7f848,2021-08-05_23h27.25.212,Agingstudy,2020.2.10,MacIntel,60,,,,,A,,,,,,,,,,,,,,,2,1,0.6868,0,82,82,82,1,2,NEW,SIMILAR,,,,,,,,
,,,,,,,,,,,,,,,,TestWords/GA_MU_ZI.wav,,5cb929bfebd17d0017e7f848,2021-08-05_23h27.25.212,Agingstudy,2020.2.10,MacIntel,60,,,,,A,,,,,,,,,,,,,,,1,1,3.4121,0,83,83,83,1,1,OLD,OLD,,,,,,,,
,,,,,,,,,,,,,,,,TestWords/PAI_LU_WA.wav,,5cb929bfebd17d0017e7f848,2021-08-05_23h27.25.212,Agingstudy,2020.2.10,MacIntel,60,,,,,A,,,,,,,,,,,,,,,2,1,0.4422,0,84,84,84,1,2,NEW,NEW,,,,,,,,
,,,,,,,,,,,,,,,,TestWords/PU_MO_DAY.wav,,5cb929bfebd17d0017e7f848,2021-08-05_23h27.25.212,Agingstudy,2020.2.10,MacIntel,60,,,,,A,,,,,,,,,,,,,,,2,1,0.1817,0,85,85,85,1,2,NEW,SIMILAR,,,,,,,,
,,,,,,,,,,,,,,,,TestWords/DAI_RU_CHI.wav,,5cb929bfebd17d0017e7f848,2021-08-05_23h27.25.212,Agingstudy,2020.2.10,MacIntel,60,,,,,A,,,,,,,,,,,,,,,1,1,0.9335,0,86,86,86,1,1,OLD,OLD,,,,,,,,
,,,,,,,,,,,,,,,,TestWords/ZO_RAI_FU.wav,,5cb929bfebd17d0017e7f848,2021-08-05_23h27.25.212,Agingstudy,2020.2.10,MacIntel,60,,,,,A,,,,,,,,,,,,,,,2,1,0.5515,0,87,87,87,1,2,NEW,SIMILAR,,,,,,,,
,,,,,,,,,,,,,,,,TestWords/FI_GU_CHA.wav,,5cb929bfebd17d0017e7f848,2021-08-05_23h27.25.212,Agingstudy,2020.2.10,MacIntel,60,,,,,A,,,,,,,,,,,,,,,2,1,0.62,0,88,88,88,1,2,NEW,NEW,,,,,,,,
,,,,,,,,,,,,,,,,TestWords/GA_MU_ZI.wav,,5cb929bfebd17d0017e7f848,2021-08-05_23h27.25.212,Agingstudy,2020.2.10,MacIntel,60,,,,,A,,,,,,,,,,,,,,,1,1,4.2212,0,89,89,89,1,1,OLD,OLD,,,,,,,,
,,,,,,,,,,,,,,,,TestWords/DAI_RU_CHI.wav,,5cb929bfebd17d0017e7f848,2021-08-05_23h27.25.212,Agingstudy,2020.2.10,MacIntel,60,,,,,A,,,,,,,,,,,,,,,1,1,0.5704,0,90,90,90,1,1,OLD,OLD,,,,,,,,
,,,,,,,,,,,,,,,,TestWords/FU_RAI_ZO.wav,,5cb929bfebd17d0017e7f848,2021-08-05_23h27.25.212,Agingstudy,2020.2.10,MacIntel,60,,,,,A,,,,,,,,,,,,,,,1,0,3.553,0,91,91,91,1,2,NEW,SIMILAR,,,,,,,,
,,,,,,,,,,,,,,,,TestWords/GU_CHAI_PI.wav,,5cb929bfebd17d0017e7f848,2021-08-05_23h27.25.212,Agingstudy,2020.2.10,MacIntel,60,,,,,A,,,,,,,,,,,,,,,2,1,1.0871,0,92,92,92,1,2,NEW,NEW,,,,,,,,
,,,,,,,,,,,,,,,,TestWords/GA_MU_ZI.wav,,5cb929bfebd17d0017e7f848,2021-08-05_23h27.25.212,Agingstudy,2020.2.10,MacIntel,60,,,,,A,,,,,,,,,,,,,,,1,1,0.8564,0,93,93,93,1,1,OLD,OLD,,,,,,,,
,,,,,,,,,,,,,,,,TestWords/DAI_RU_CHI.wav,,5cb929bfebd17d0017e7f848,2021-08-05_23h27.25.212,Agingstudy,2020.2.10,MacIntel,60,,,,,A,,,,,,,,,,,,,,,1,1,0.4438,0,94,94,94,1,1,OLD,OLD,,,,,,,,
,,,,,,,,,,,,,,,,TestWords/FU_ZO_RAI.wav,,5cb929bfebd17d0017e7f848,2021-08-05_23h27.25.212,Agingstudy,2020.2.10,MacIntel,60,,,,,A,,,,,,,,,,,,,,,1,0,1.6523,0,95,95,95,1,2,NEW,SIMILAR,,,,,,,,
,,,,,,,,,,,,,,,,TestWords/VAI_HO_LA.wav,,5cb929bfebd17d0017e7f848,2021-08-05_23h27.25.212,Agingstudy,2020.2.10,MacIntel,60,,,,,A,,,,,,,,,,,,,,,2,1,0.4034,0,96,96,96,1,2,NEW,NEW,,,,,,,,
,,,,,,,,,,,,,,,,TestWords/DAI_RU_CHI.wav,,5cb929bfebd17d0017e7f848,2021-08-05_23h27.25.212,Agingstudy,2020.2.10,MacIntel,60,,,,,A,,,,,,,,,,,,,,,1,1,0.5686,0,97,97,97,1,1,OLD,OLD,,,,,,,,
,,,,,,,,,,,,,,,,TestWords/LA_ZAY_CHAI.wav,,5cb929bfebd17d0017e7f848,2021-08-05_23h27.25.212,Agingstudy,2020.2.10,MacIntel,60,,,,,A,,,,,,,,,,,,,,,2,1,2.2856,0,98,98,98,1,2,NEW,NEW,,,,,,,,
,,,,,,,,,,,,,,,,TestWords/RAI_FU_ZO.wav,,5cb929bfebd17d0017e7f848,2021-08-05_23h27.25.212,Agingstudy,2020.2.10,MacIntel,60,,,,,A,,,,,,,,,,,,,,,2,1,1.7042,0,99,99,99,1,2,NEW,SIMILAR,,,,,,,,
,,,,,,,,,,,,,,,,,,5cb929bfebd17d0017e7f848,2021-08-05_23h27.25.212,Agingstudy,2020.2.10,MacIntel,60,,,,,,,,,,,,,,,,,,,,,,,,,,,,,,,0,0,0,0,1,,,
,,,,,,,,,,,,,,,,,,5cb929bfebd17d0017e7f848,2021-08-05_23h27.25.212,Agingstudy,2020.2.10,MacIntel,60,,,,,,,,,,,,,,,,,,,,,,,,,,,,,,,,,,,,return,29.4165,
