Welcome0Continue.keys,Welcome0Continue.rt,SoundCheckBegin.keys,SoundCheckBegin.rt,SoundCheckEndKey.keys,SoundCheckEndKey.rt,HeadphoneContinueKey.keys,HeadphoneContinueKey.rt,CheckResp.keys,CheckResp.corr,CheckResp.rt,HeadphoneLoop.thisRepN,HeadphoneLoop.thisTrialN,HeadphoneLoop.thisN,HeadphoneLoop.thisIndex,HeadphoneLoop.ran,File,Correct,participant,date,expName,psychopyVersion,OS,frameRate,ContinueKey8.keys,ContinueKey8.rt,MSTWelcomeContKey.keys,MSTWelcomeContKey.rt,Condition,MSTTrainIntroKey.keys,MSTTrainIntroKey.rt,MSTTrainKeys.keys,MSTTrainKeys.corr,MSTTrainKeys.rt,MSTTrainLoop.thisRepN,MSTTrainLoop.thisTrialN,MSTTrainLoop.thisN,MSTTrainLoop.thisIndex,MSTTrainLoop.ran,SoundFile,Type,MSTTestBeginKey.keys,MSTTestBeginKey.rt,MST_resp.keys,MST_resp.corr,MST_resp.rt,MSTPlayLoop.thisRepN,MSTPlayLoop.thisTrialN,MSTPlayLoop.thisN,MSTPlayLoop.thisIndex,MSTPlayLoop.ran,WordCorrect,Correct_type,WordType,MSTLoop.thisRepN,MSTLoop.thisTrialN,MSTLoop.thisN,MSTLoop.thisIndex,MSTLoop.ran,EndAllKey.keys,EndAllKey.rt,FeedbackResp.text
space,5.998,space,5.0279,space,20.9532,space,19.4131,2,0,5.6551,0,0,0,5,1,Headphone/t3_2.wav,3,5cd2ee8d66bd5c001747f52e,2021-07-20_16h52.51.871,Agingstudy,2020.2.10,Win32,60,,,,,,,,,,,,,,,,,,,,,,,,,,,,,,,,,,,,,,
,,,,,,,,3,1,1.4974,0,1,1,4,1,Headphone/t3_1.wav,3,5cd2ee8d66bd5c001747f52e,2021-07-20_16h52.51.871,Agingstudy,2020.2.10,Win32,60,,,,,,,,,,,,,,,,,,,,,,,,,,,,,,,,,,,,,,
,,,,,,,,1,1,0.6593,0,2,2,1,1,Headphone/t1_2.wav,1,5cd2ee8d66bd5c001747f52e,2021-07-20_16h52.51.871,Agingstudy,2020.2.10,Win32,60,,,,,,,,,,,,,,,,,,,,,,,,,,,,,,,,,,,,,,
,,,,,,,,2,1,0.4298,0,3,3,2,1,Headphone/t2_1.wav,2,5cd2ee8d66bd5c001747f52e,2021-07-20_16h52.51.871,Agingstudy,2020.2.10,Win32,60,,,,,,,,,,,,,,,,,,,,,,,,,,,,,,,,,,,,,,
,,,,,,,,2,1,0.5038,0,4,4,3,1,Headphone/t2_2.wav,2,5cd2ee8d66bd5c001747f52e,2021-07-20_16h52.51.871,Agingstudy,2020.2.10,Win32,60,,,,,,,,,,,,,,,,,,,,,,,,,,,,,,,,,,,,,,
,,,,,,,,1,1,0.334,0,5,5,0,1,Headphone/t1_1.wav,1,5cd2ee8d66bd5c001747f52e,2021-07-20_16h52.51.871,Agingstudy,2020.2.10,Win32,60,,,,,,,,,,,,,,,,,,,,,,,,,,,,,,,,,,,,,,
,,,,,,,,,,,,,,,,,2,5cd2ee8d66bd5c001747f52e,2021-07-20_16h52.51.871,Agingstudy,2020.2.10,Win32,60,space,14.8136,space,8.9515,1,space,4.7586,1,0,21.4625,0,0,0,0,1,Training/FO_YI_LAY.wav,NEW,,,,,,,,,,,,,,,,,,,,,
,,,,,,,,,,,,,,,,,1,5cd2ee8d66bd5c001747f52e,2021-07-20_16h52.51.871,Agingstudy,2020.2.10,Win32,60,,,,,,,,1,1,4.6158,0,1,1,1,1,Training/FO_YI_LAY.wav,OLD,,,,,,,,,,,,,,,,,,,,,
,,,,,,,,,,,,,,,,,2,5cd2ee8d66bd5c001747f52e,2021-07-20_16h52.51.871,Agingstudy,2020.2.10,Win32,60,,,,,,,,2,1,3.5542,0,2,2,2,1,Training/YO_BU_JAY.wav,NEW,,,,,,,,,,,,,,,,,,,,,
,,,,,,,,,,,,,,,,,2,5cd2ee8d66bd5c001747f52e,2021-07-20_16h52.51.871,Agingstudy,2020.2.10,Win32,60,,,,,,,,2,1,1.9341,0,3,3,3,1,Training/JAY_YO_BU.wav,SIMILAR,,,,,,,,,,,,,,,,,,,,,
,,,,,,,,,,,,,,,,,1,5cd2ee8d66bd5c001747f52e,2021-07-20_16h52.51.871,Agingstudy,2020.2.10,Win32,60,,,,,,,,1,1,2.8994,0,4,4,4,1,Training/FO_YI_LAY.wav,OLD,,,,,,,,,,,,,,,,,,,,,
,,,,,,,,,,,,,,,,TestWords/HA_SI_JAI.wav,,5cd2ee8d66bd5c001747f52e,2021-07-20_16h52.51.871,Agingstudy,2020.2.10,Win32,60,,,,,A,,,,,,,,,,,,,space,7.9204,2,1,3.5751,0,0,0,0,1,2,NEW,NEW,,,,,,,,
,,,,,,,,,,,,,,,,TestWords/KO_SU_FAI.wav,,5cd2ee8d66bd5c001747f52e,2021-07-20_16h52.51.871,Agingstudy,2020.2.10,Win32,60,,,,,A,,,,,,,,,,,,,,,2,1,1.4107,0,1,1,1,1,2,NEW,NEW,,,,,,,,
,,,,,,,,,,,,,,,,TestWords/TAI_GI_SA.wav,,5cd2ee8d66bd5c001747f52e,2021-07-20_16h52.51.871,Agingstudy,2020.2.10,Win32,60,,,,,A,,,,,,,,,,,,,,,2,1,1.6475,0,2,2,2,1,2,NEW,NEW,,,,,,,,
,,,,,,,,,,,,,,,,TestWords/KAI_LAY_TA.wav,,5cd2ee8d66bd5c001747f52e,2021-07-20_16h52.51.871,Agingstudy,2020.2.10,Win32,60,,,,,A,,,,,,,,,,,,,,,2,1,0.4074,0,3,3,3,1,2,NEW,NEW,,,,,,,,
,,,,,,,,,,,,,,,,TestWords/RAY_PA_TI.wav,,5cd2ee8d66bd5c001747f52e,2021-07-20_16h52.51.871,Agingstudy,2020.2.10,Win32,60,,,,,A,,,,,,,,,,,,,,,1,0,1.7689,0,4,4,4,1,2,NEW,NEW,,,,,,,,
,,,,,,,,,,,,,,,,TestWords/KO_SU_FAI.wav,,5cd2ee8d66bd5c001747f52e,2021-07-20_16h52.51.871,Agingstudy,2020.2.10,Win32,60,,,,,A,,,,,,,,,,,,,,,1,1,1.4536,0,5,5,5,1,1,OLD,OLD,,,,,,,,
,,,,,,,,,,,,,,,,TestWords/TAI_SA_GI.wav,,5cd2ee8d66bd5c001747f52e,2021-07-20_16h52.51.871,Agingstudy,2020.2.10,Win32,60,,,,,A,,,,,,,,,,,,,,,1,0,1.0581,0,6,6,6,1,2,NEW,SIMILAR,,,,,,,,
,,,,,,,,,,,,,,,,TestWords/KAI_LAY_TA.wav,,5cd2ee8d66bd5c001747f52e,2021-07-20_16h52.51.871,Agingstudy,2020.2.10,Win32,60,,,,,A,,,,,,,,,,,,,,,2,0,0.2322,0,7,7,7,1,1,OLD,OLD,,,,,,,,
,,,,,,,,,,,,,,,,TestWords/NA_WAI_VU.wav,,5cd2ee8d66bd5c001747f52e,2021-07-20_16h52.51.871,Agingstudy,2020.2.10,Win32,60,,,,,A,,,,,,,,,,,,,,,2,1,0.5523,0,8,8,8,1,2,NEW,NEW,,,,,,,,
,,,,,,,,,,,,,,,,TestWords/KO_SU_FAI.wav,,5cd2ee8d66bd5c001747f52e,2021-07-20_16h52.51.871,Agingstudy,2020.2.10,Win32,60,,,,,A,,,,,,,,,,,,,,,2,0,1.2375,0,9,9,9,1,1,OLD,OLD,,,,,,,,
,,,,,,,,,,,,,,,,TestWords/RAY_PA_TI.wav,,5cd2ee8d66bd5c001747f52e,2021-07-20_16h52.51.871,Agingstudy,2020.2.10,Win32,60,,,,,A,,,,,,,,,,,,,,,2,0,2.0799,0,10,10,10,1,1,OLD,OLD,,,,,,,,
,,,,,,,,,,,,,,,,TestWords/GI_SA_TAI.wav,,5cd2ee8d66bd5c001747f52e,2021-07-20_16h52.51.871,Agingstudy,2020.2.10,Win32,60,,,,,A,,,,,,,,,,,,,,,1,0,1.5218,0,11,11,11,1,2,NEW,SIMILAR,,,,,,,,
,,,,,,,,,,,,,,,,TestWords/WAI_VU_NA.wav,,5cd2ee8d66bd5c001747f52e,2021-07-20_16h52.51.871,Agingstudy,2020.2.10,Win32,60,,,,,A,,,,,,,,,,,,,,,2,1,1.4676,0,12,12,12,1,2,NEW,SIMILAR,,,,,,,,
,,,,,,,,,,,,,,,,TestWords/KAI_LAY_TA.wav,,5cd2ee8d66bd5c001747f52e,2021-07-20_16h52.51.871,Agingstudy,2020.2.10,Win32,60,,,,,A,,,,,,,,,,,,,,,1,1,0.2847,0,13,13,13,1,1,OLD,OLD,,,,,,,,
,,,,,,,,,,,,,,,,TestWords/SI_VAI_CHU.wav,,5cd2ee8d66bd5c001747f52e,2021-07-20_16h52.51.871,Agingstudy,2020.2.10,Win32,60,,,,,A,,,,,,,,,,,,,,,1,0,3.4665,0,14,14,14,1,2,NEW,NEW,,,,,,,,
,,,,,,,,,,,,,,,,TestWords/GI_TAI_SA.wav,,5cd2ee8d66bd5c001747f52e,2021-07-20_16h52.51.871,Agingstudy,2020.2.10,Win32,60,,,,,A,,,,,,,,,,,,,,,1,0,1.655,0,15,15,15,1,2,NEW,SIMILAR,,,,,,,,
,,,,,,,,,,,,,,,,TestWords/KO_SU_FAI.wav,,5cd2ee8d66bd5c001747f52e,2021-07-20_16h52.51.871,Agingstudy,2020.2.10,Win32,60,,,,,A,,,,,,,,,,,,,,,1,1,1.1485,0,16,16,16,1,1,OLD,OLD,,,,,,,,
,,,,,,,,,,,,,,,,TestWords/DA_CHU_VAI.wav,,5cd2ee8d66bd5c001747f52e,2021-07-20_16h52.51.871,Agingstudy,2020.2.10,Win32,60,,,,,A,,,,,,,,,,,,,,,1,0,1.0597,0,17,17,17,1,2,NEW,NEW,,,,,,,,
,,,,,,,,,,,,,,,,TestWords/RAY_PA_TI.wav,,5cd2ee8d66bd5c001747f52e,2021-07-20_16h52.51.871,Agingstudy,2020.2.10,Win32,60,,,,,A,,,,,,,,,,,,,,,1,1,1.7547,0,18,18,18,1,1,OLD,OLD,,,,,,,,
,,,,,,,,,,,,,,,,TestWords/KAI_LAY_TA.wav,,5cd2ee8d66bd5c001747f52e,2021-07-20_16h52.51.871,Agingstudy,2020.2.10,Win32,60,,,,,A,,,,,,,,,,,,,,,2,0,3.7265,0,19,19,19,1,1,OLD,OLD,,,,,,,,
,,,,,,,,,,,,,,,,TestWords/WAI_NA_VU.wav,,5cd2ee8d66bd5c001747f52e,2021-07-20_16h52.51.871,Agingstudy,2020.2.10,Win32,60,,,,,A,,,,,,,,,,,,,,,2,1,0.57,0,20,20,20,1,2,NEW,SIMILAR,,,,,,,,
,,,,,,,,,,,,,,,,TestWords/KO_SU_FAI.wav,,5cd2ee8d66bd5c001747f52e,2021-07-20_16h52.51.871,Agingstudy,2020.2.10,Win32,60,,,,,A,,,,,,,,,,,,,,,1,1,0.8297,0,21,21,21,1,1,OLD,OLD,,,,,,,,
,,,,,,,,,,,,,,,,TestWords/SA_TAI_GI.wav,,5cd2ee8d66bd5c001747f52e,2021-07-20_16h52.51.871,Agingstudy,2020.2.10,Win32,60,,,,,A,,,,,,,,,,,,,,,1,0,0.2176,0,22,22,22,1,2,NEW,SIMILAR,,,,,,,,
,,,,,,,,,,,,,,,,TestWords/RAY_PA_TI.wav,,5cd2ee8d66bd5c001747f52e,2021-07-20_16h52.51.871,Agingstudy,2020.2.10,Win32,60,,,,,A,,,,,,,,,,,,,,,1,1,1.0857,0,23,23,23,1,1,OLD,OLD,,,,,,,,
,,,,,,,,,,,,,,,,TestWords/VU_NA_WAI.wav,,5cd2ee8d66bd5c001747f52e,2021-07-20_16h52.51.871,Agingstudy,2020.2.10,Win32,60,,,,,A,,,,,,,,,,,,,,,2,1,1.6477,0,24,24,24,1,2,NEW,SIMILAR,,,,,,,,
,,,,,,,,,,,,,,,,TestWords/KAI_LAY_TA.wav,,5cd2ee8d66bd5c001747f52e,2021-07-20_16h52.51.871,Agingstudy,2020.2.10,Win32,60,,,,,A,,,,,,,,,,,,,,,1,1,1.0719,0,25,25,25,1,1,OLD,OLD,,,,,,,,
,,,,,,,,,,,,,,,,TestWords/WAI_RO_JU.wav,,5cd2ee8d66bd5c001747f52e,2021-07-20_16h52.51.871,Agingstudy,2020.2.10,Win32,60,,,,,A,,,,,,,,,,,,,,,2,1,0.9702,0,26,26,26,1,2,NEW,NEW,,,,,,,,
,,,,,,,,,,,,,,,,TestWords/KO_SU_FAI.wav,,5cd2ee8d66bd5c001747f52e,2021-07-20_16h52.51.871,Agingstudy,2020.2.10,Win32,60,,,,,A,,,,,,,,,,,,,,,1,1,0.0757,0,27,27,27,1,1,OLD,OLD,,,,,,,,
,,,,,,,,,,,,,,,,TestWords/SA_GI_TAI.wav,,5cd2ee8d66bd5c001747f52e,2021-07-20_16h52.51.871,Agingstudy,2020.2.10,Win32,60,,,,,A,,,,,,,,,,,,,,,2,1,0.7686,0,28,28,28,1,2,NEW,SIMILAR,,,,,,,,
,,,,,,,,,,,,,,,,TestWords/RAY_PA_TI.wav,,5cd2ee8d66bd5c001747f52e,2021-07-20_16h52.51.871,Agingstudy,2020.2.10,Win32,60,,,,,A,,,,,,,,,,,,,,,1,1,0.3649,0,29,29,29,1,1,OLD,OLD,,,,,,,,
,,,,,,,,,,,,,,,,TestWords/GA_MU_ZI.wav,,5cd2ee8d66bd5c001747f52e,2021-07-20_16h52.51.871,Agingstudy,2020.2.10,Win32,60,,,,,A,,,,,,,,,,,,,,,1,0,0.6042,0,30,30,30,1,2,NEW,NEW,,,,,,,,
,,,,,,,,,,,,,,,,TestWords/KAI_LAY_TA.wav,,5cd2ee8d66bd5c001747f52e,2021-07-20_16h52.51.871,Agingstudy,2020.2.10,Win32,60,,,,,A,,,,,,,,,,,,,,,1,1,0.3023,0,31,31,31,1,1,OLD,OLD,,,,,,,,
,,,,,,,,,,,,,,,,TestWords/VU_WAI_NA.wav,,5cd2ee8d66bd5c001747f52e,2021-07-20_16h52.51.871,Agingstudy,2020.2.10,Win32,60,,,,,A,,,,,,,,,,,,,,,2,1,0.5051,0,32,32,32,1,2,NEW,SIMILAR,,,,,,,,
,,,,,,,,,,,,,,,,TestWords/RAY_PA_TI.wav,,5cd2ee8d66bd5c001747f52e,2021-07-20_16h52.51.871,Agingstudy,2020.2.10,Win32,60,,,,,A,,,,,,,,,,,,,,,1,1,0.9305,0,33,33,33,1,1,OLD,OLD,,,,,,,,
,,,,,,,,,,,,,,,,TestWords/LI_KAY_BA.wav,,5cd2ee8d66bd5c001747f52e,2021-07-20_16h52.51.871,Agingstudy,2020.2.10,Win32,60,,,,,A,,,,,,,,,,,,,,,2,1,1.3947,0,34,34,34,1,2,NEW,NEW,,,,,,,,
,,,,,,,,,,,,,,,,TestWords/HI_NAY_VA.wav,,5cd2ee8d66bd5c001747f52e,2021-07-20_16h52.51.871,Agingstudy,2020.2.10,Win32,60,,,,,A,,,,,,,,,,,,,,,2,1,0.6821,0,35,35,35,1,2,NEW,NEW,,,,,,,,
,,,,,,,,,,,,,,,,TestWords/KO_SU_FAI.wav,,5cd2ee8d66bd5c001747f52e,2021-07-20_16h52.51.871,Agingstudy,2020.2.10,Win32,60,,,,,A,,,,,,,,,,,,,,,1,1,0.0955,0,36,36,36,1,1,OLD,OLD,,,,,,,,
,,,,,,,,,,,,,,,,TestWords/NA_VU_WAI.wav,,5cd2ee8d66bd5c001747f52e,2021-07-20_16h52.51.871,Agingstudy,2020.2.10,Win32,60,,,,,A,,,,,,,,,,,,,,,1,0,0.2792,0,37,37,37,1,2,NEW,SIMILAR,,,,,,,,
,,,,,,,,,,,,,,,,TestWords/GA_MU_ZI.wav,,5cd2ee8d66bd5c001747f52e,2021-07-20_16h52.51.871,Agingstudy,2020.2.10,Win32,60,,,,,A,,,,,,,,,,,,,,,2,0,0.2519,0,38,38,38,1,1,OLD,OLD,,,,,,,,
,,,,,,,,,,,,,,,,TestWords/KAI_LAY_TA.wav,,5cd2ee8d66bd5c001747f52e,2021-07-20_16h52.51.871,Agingstudy,2020.2.10,Win32,60,,,,,A,,,,,,,,,,,,,,,1,1,1.0364,0,39,39,39,1,1,OLD,OLD,,,,,,,,
,,,,,,,,,,,,,,,,TestWords/DAI_RU_CHI.wav,,5cd2ee8d66bd5c001747f52e,2021-07-20_16h52.51.871,Agingstudy,2020.2.10,Win32,60,,,,,A,,,,,,,,,,,,,,,2,1,0.5054,0,40,40,40,1,2,NEW,NEW,,,,,,,,
,,,,,,,,,,,,,,,,TestWords/NU_CHAY_SO.wav,,5cd2ee8d66bd5c001747f52e,2021-07-20_16h52.51.871,Agingstudy,2020.2.10,Win32,60,,,,,A,,,,,,,,,,,,,,,1,0,0.466,0,41,41,41,1,2,NEW,NEW,,,,,,,,
,,,,,,,,,,,,,,,,TestWords/RAY_PA_TI.wav,,5cd2ee8d66bd5c001747f52e,2021-07-20_16h52.51.871,Agingstudy,2020.2.10,Win32,60,,,,,A,,,,,,,,,,,,,,,1,1,0.6725,0,42,42,42,1,1,OLD,OLD,,,,,,,,
,,,,,,,,,,,,,,,,TestWords/BA_KAY_LI.wav,,5cd2ee8d66bd5c001747f52e,2021-07-20_16h52.51.871,Agingstudy,2020.2.10,Win32,60,,,,,A,,,,,,,,,,,,,,,2,1,2.7131,0,43,43,43,1,2,NEW,SIMILAR,,,,,,,,
,,,,,,,,,,,,,,,,TestWords/KO_SU_FAI.wav,,5cd2ee8d66bd5c001747f52e,2021-07-20_16h52.51.871,Agingstudy,2020.2.10,Win32,60,,,,,A,,,,,,,,,,,,,,,1,1,0.1361,0,44,44,44,1,1,OLD,OLD,,,,,,,,
,,,,,,,,,,,,,,,,TestWords/GA_MU_ZI.wav,,5cd2ee8d66bd5c001747f52e,2021-07-20_16h52.51.871,Agingstudy,2020.2.10,Win32,60,,,,,A,,,,,,,,,,,,,,,1,1,0.0405,0,45,45,45,1,1,OLD,OLD,,,,,,,,
,,,,,,,,,,,,,,,,TestWords/CHU_LA_PAY.wav,,5cd2ee8d66bd5c001747f52e,2021-07-20_16h52.51.871,Agingstudy,2020.2.10,Win32,60,,,,,A,,,,,,,,,,,,,,,1,0,1.1439,0,46,46,46,1,2,NEW,NEW,,,,,,,,
,,,,,,,,,,,,,,,,TestWords/KAI_LAY_TA.wav,,5cd2ee8d66bd5c001747f52e,2021-07-20_16h52.51.871,Agingstudy,2020.2.10,Win32,60,,,,,A,,,,,,,,,,,,,,,2,0,0.2896,0,47,47,47,1,1,OLD,OLD,,,,,,,,
,,,,,,,,,,,,,,,,TestWords/DAI_RU_CHI.wav,,5cd2ee8d66bd5c001747f52e,2021-07-20_16h52.51.871,Agingstudy,2020.2.10,Win32,60,,,,,A,,,,,,,,,,,,,,,2,0,0.67,0,48,48,48,1,1,OLD,OLD,,,,,,,,
,,,,,,,,,,,,,,,,TestWords/KO_SU_FAI.wav,,5cd2ee8d66bd5c001747f52e,2021-07-20_16h52.51.871,Agingstudy,2020.2.10,Win32,60,,,,,A,,,,,,,,,,,,,,,1,1,0.2174,0,49,49,49,1,1,OLD,OLD,,,,,,,,
,,,,,,,,,,,,,,,,TestWords/KAY_LI_BA.wav,,5cd2ee8d66bd5c001747f52e,2021-07-20_16h52.51.871,Agingstudy,2020.2.10,Win32,60,,,,,A,,,,,,,,,,,,,,,1,0,0.1525,0,50,50,50,1,2,NEW,SIMILAR,,,,,,,,
,,,,,,,,,,,,,,,,TestWords/RAY_PA_TI.wav,,5cd2ee8d66bd5c001747f52e,2021-07-20_16h52.51.871,Agingstudy,2020.2.10,Win32,60,,,,,A,,,,,,,,,,,,,,,1,1,0.0953,0,51,51,51,1,1,OLD,OLD,,,,,,,,
,,,,,,,,,,,,,,,,TestWords/KAI_LAY_TA.wav,,5cd2ee8d66bd5c001747f52e,2021-07-20_16h52.51.871,Agingstudy,2020.2.10,Win32,60,,,,,A,,,,,,,,,,,,,,,1,1,0.2087,0,52,52,52,1,1,OLD,OLD,,,,,,,,
,,,,,,,,,,,,,,,,TestWords/HO_NAY_VA.wav,,5cd2ee8d66bd5c001747f52e,2021-07-20_16h52.51.871,Agingstudy,2020.2.10,Win32,60,,,,,A,,,,,,,,,,,,,,,2,1,0.2002,0,53,53,53,1,2,NEW,NEW,,,,,,,,
,,,,,,,,,,,,,,,,TestWords/GA_MU_ZI.wav,,5cd2ee8d66bd5c001747f52e,2021-07-20_16h52.51.871,Agingstudy,2020.2.10,Win32,60,,,,,A,,,,,,,,,,,,,,,1,1,0.2903,0,54,54,54,1,1,OLD,OLD,,,,,,,,
,,,,,,,,,,,,,,,,TestWords/DAI_RU_CHI.wav,,5cd2ee8d66bd5c001747f52e,2021-07-20_16h52.51.871,Agingstudy,2020.2.10,Win32,60,,,,,A,,,,,,,,,,,,,,,1,1,0.019,0,55,55,55,1,1,OLD,OLD,,,,,,,,
,,,,,,,,,,,,,,,,TestWords/MO_PU_DAY.wav,,5cd2ee8d66bd5c001747f52e,2021-07-20_16h52.51.871,Agingstudy,2020.2.10,Win32,60,,,,,A,,,,,,,,,,,,,,,2,1,0.2256,0,56,56,56,1,2,NEW,NEW,,,,,,,,
,,,,,,,,,,,,,,,,TestWords/KO_SU_FAI.wav,,5cd2ee8d66bd5c001747f52e,2021-07-20_16h52.51.871,Agingstudy,2020.2.10,Win32,60,,,,,A,,,,,,,,,,,,,,,1,1,0.092,0,57,57,57,1,1,OLD,OLD,,,,,,,,
,,,,,,,,,,,,,,,,TestWords/KAY_BA_LI.wav,,5cd2ee8d66bd5c001747f52e,2021-07-20_16h52.51.871,Agingstudy,2020.2.10,Win32,60,,,,,A,,,,,,,,,,,,,,,1,0,0.3194,0,58,58,58,1,2,NEW,SIMILAR,,,,,,,,
,,,,,,,,,,,,,,,,TestWords/RAY_PA_TI.wav,,5cd2ee8d66bd5c001747f52e,2021-07-20_16h52.51.871,Agingstudy,2020.2.10,Win32,60,,,,,A,,,,,,,,,,,,,,,1,1,0.1025,0,59,59,59,1,1,OLD,OLD,,,,,,,,
,,,,,,,,,,,,,,,,TestWords/KAI_LAY_TA.wav,,5cd2ee8d66bd5c001747f52e,2021-07-20_16h52.51.871,Agingstudy,2020.2.10,Win32,60,,,,,A,,,,,,,,,,,,,,,1,1,0.609,0,60,60,60,1,1,OLD,OLD,,,,,,,,
,,,,,,,,,,,,,,,,TestWords/GA_MU_ZI.wav,,5cd2ee8d66bd5c001747f52e,2021-07-20_16h52.51.871,Agingstudy,2020.2.10,Win32,60,,,,,A,,,,,,,,,,,,,,,1,1,0.076,0,61,61,61,1,1,OLD,OLD,,,,,,,,
,,,,,,,,,,,,,,,,TestWords/DAY_PU_MO.wav,,5cd2ee8d66bd5c001747f52e,2021-07-20_16h52.51.871,Agingstudy,2020.2.10,Win32,60,,,,,A,,,,,,,,,,,,,,,2,1,0.3421,0,62,62,62,1,2,NEW,SIMILAR,,,,,,,,
,,,,,,,,,,,,,,,,TestWords/DAI_RU_CHI.wav,,5cd2ee8d66bd5c001747f52e,2021-07-20_16h52.51.871,Agingstudy,2020.2.10,Win32,60,,,,,A,,,,,,,,,,,,,,,1,1,0.1188,0,63,63,63,1,1,OLD,OLD,,,,,,,,
,,,,,,,,,,,,,,,,TestWords/LI_BA_KAY.wav,,5cd2ee8d66bd5c001747f52e,2021-07-20_16h52.51.871,Agingstudy,2020.2.10,Win32,60,,,,,A,,,,,,,,,,,,,,,2,1,0.3623,0,64,64,64,1,2,NEW,SIMILAR,,,,,,,,
,,,,,,,,,,,,,,,,TestWords/KAI_LAY_TA.wav,,5cd2ee8d66bd5c001747f52e,2021-07-20_16h52.51.871,Agingstudy,2020.2.10,Win32,60,,,,,A,,,,,,,,,,,,,,,1,1,0.0933,0,65,65,65,1,1,OLD,OLD,,,,,,,,
,,,,,,,,,,,,,,,,TestWords/KO_SU_FAI.wav,,5cd2ee8d66bd5c001747f52e,2021-07-20_16h52.51.871,Agingstudy,2020.2.10,Win32,60,,,,,A,,,,,,,,,,,,,,,1,1,0.1675,0,66,66,66,1,1,OLD,OLD,,,,,,,,
,,,,,,,,,,,,,,,,TestWords/DAY_MO_PU.wav,,5cd2ee8d66bd5c001747f52e,2021-07-20_16h52.51.871,Agingstudy,2020.2.10,Win32,60,,,,,A,,,,,,,,,,,,,,,2,1,0.3537,0,67,67,67,1,2,NEW,SIMILAR,,,,,,,,
,,,,,,,,,,,,,,,,TestWords/RAY_PA_TI.wav,,5cd2ee8d66bd5c001747f52e,2021-07-20_16h52.51.871,Agingstudy,2020.2.10,Win32,60,,,,,A,,,,,,,,,,,,,,,1,1,0.0709,0,68,68,68,1,1,OLD,OLD,,,,,,,,
,,,,,,,,,,,,,,,,TestWords/GA_MU_ZI.wav,,5cd2ee8d66bd5c001747f52e,2021-07-20_16h52.51.871,Agingstudy,2020.2.10,Win32,60,,,,,A,,,,,,,,,,,,,,,1,1,0.0538,0,69,69,69,1,1,OLD,OLD,,,,,,,,
,,,,,,,,,,,,,,,,TestWords/BA_LI_KAY.wav,,5cd2ee8d66bd5c001747f52e,2021-07-20_16h52.51.871,Agingstudy,2020.2.10,Win32,60,,,,,A,,,,,,,,,,,,,,,1,0,0.1178,0,70,70,70,1,2,NEW,SIMILAR,,,,,,,,
,,,,,,,,,,,,,,,,TestWords/DAI_RU_CHI.wav,,5cd2ee8d66bd5c001747f52e,2021-07-20_16h52.51.871,Agingstudy,2020.2.10,Win32,60,,,,,A,,,,,,,,,,,,,,,1,1,0.1783,0,71,71,71,1,1,OLD,OLD,,,,,,,,
,,,,,,,,,,,,,,,,TestWords/LU_HAI_BO.wav,,5cd2ee8d66bd5c001747f52e,2021-07-20_16h52.51.871,Agingstudy,2020.2.10,Win32,60,,,,,A,,,,,,,,,,,,,,,2,1,0.1519,0,72,72,72,1,2,NEW,NEW,,,,,,,,
,,,,,,,,,,,,,,,,TestWords/RAY_PA_TI.wav,,5cd2ee8d66bd5c001747f52e,2021-07-20_16h52.51.871,Agingstudy,2020.2.10,Win32,60,,,,,A,,,,,,,,,,,,,,,1,1,0.5766,0,73,73,73,1,1,OLD,OLD,,,,,,,,
,,,,,,,,,,,,,,,,TestWords/GA_MU_ZI.wav,,5cd2ee8d66bd5c001747f52e,2021-07-20_16h52.51.871,Agingstudy,2020.2.10,Win32,60,,,,,A,,,,,,,,,,,,,,,1,1,0.712,0,74,74,74,1,1,OLD,OLD,,,,,,,,
,,,,,,,,,,,,,,,,TestWords/MO_DAY_PU.wav,,5cd2ee8d66bd5c001747f52e,2021-07-20_16h52.51.871,Agingstudy,2020.2.10,Win32,60,,,,,A,,,,,,,,,,,,,,,2,1,0.2391,0,75,75,75,1,2,NEW,SIMILAR,,,,,,,,
,,,,,,,,,,,,,,,,TestWords/DAI_RU_CHI.wav,,5cd2ee8d66bd5c001747f52e,2021-07-20_16h52.51.871,Agingstudy,2020.2.10,Win32,60,,,,,A,,,,,,,,,,,,,,,1,1,0.1515,0,76,76,76,1,1,OLD,OLD,,,,,,,,
,,,,,,,,,,,,,,,,TestWords/ZO_FU_RAI.wav,,5cd2ee8d66bd5c001747f52e,2021-07-20_16h52.51.871,Agingstudy,2020.2.10,Win32,60,,,,,A,,,,,,,,,,,,,,,2,1,0.8802,0,77,77,77,1,2,NEW,NEW,,,,,,,,
,,,,,,,,,,,,,,,,TestWords/NO_WA_BAY.wav,,5cd2ee8d66bd5c001747f52e,2021-07-20_16h52.51.871,Agingstudy,2020.2.10,Win32,60,,,,,A,,,,,,,,,,,,,,,2,1,0.3781,0,78,78,78,1,2,NEW,NEW,,,,,,,,
,,,,,,,,,,,,,,,,TestWords/GA_MU_ZI.wav,,5cd2ee8d66bd5c001747f52e,2021-07-20_16h52.51.871,Agingstudy,2020.2.10,Win32,60,,,,,A,,,,,,,,,,,,,,,1,1,0.5436,0,79,79,79,1,1,OLD,OLD,,,,,,,,
,,,,,,,,,,,,,,,,TestWords/DAI_RU_CHI.wav,,5cd2ee8d66bd5c001747f52e,2021-07-20_16h52.51.871,Agingstudy,2020.2.10,Win32,60,,,,,A,,,,,,,,,,,,,,,1,1,0.175,0,80,80,80,1,1,OLD,OLD,,,,,,,,
,,,,,,,,,,,,,,,,TestWords/PU_DAY_MO.wav,,5cd2ee8d66bd5c001747f52e,2021-07-20_16h52.51.871,Agingstudy,2020.2.10,Win32,60,,,,,A,,,,,,,,,,,,,,,2,1,0.3912,0,81,81,81,1,2,NEW,SIMILAR,,,,,,,,
,,,,,,,,,,,,,,,,TestWords/RAI_ZO_FU.wav,,5cd2ee8d66bd5c001747f52e,2021-07-20_16h52.51.871,Agingstudy,2020.2.10,Win32,60,,,,,A,,,,,,,,,,,,,,,1,0,0.4185,0,82,82,82,1,2,NEW,SIMILAR,,,,,,,,
,,,,,,,,,,,,,,,,TestWords/GA_MU_ZI.wav,,5cd2ee8d66bd5c001747f52e,2021-07-20_16h52.51.871,Agingstudy,2020.2.10,Win32,60,,,,,A,,,,,,,,,,,,,,,1,1,0.5688,0,83,83,83,1,1,OLD,OLD,,,,,,,,
,,,,,,,,,,,,,,,,TestWords/PAI_LU_WA.wav,,5cd2ee8d66bd5c001747f52e,2021-07-20_16h52.51.871,Agingstudy,2020.2.10,Win32,60,,,,,A,,,,,,,,,,,,,,,2,1,0.2174,0,84,84,84,1,2,NEW,NEW,,,,,,,,
,,,,,,,,,,,,,,,,TestWords/PU_MO_DAY.wav,,5cd2ee8d66bd5c001747f52e,2021-07-20_16h52.51.871,Agingstudy,2020.2.10,Win32,60,,,,,A,,,,,,,,,,,,,,,1,0,0.5352,0,85,85,85,1,2,NEW,SIMILAR,,,,,,,,
,,,,,,,,,,,,,,,,TestWords/DAI_RU_CHI.wav,,5cd2ee8d66bd5c001747f52e,2021-07-20_16h52.51.871,Agingstudy,2020.2.10,Win32,60,,,,,A,,,,,,,,,,,,,,,2,0,0.3408,0,86,86,86,1,1,OLD,OLD,,,,,,,,
,,,,,,,,,,,,,,,,TestWords/ZO_RAI_FU.wav,,5cd2ee8d66bd5c001747f52e,2021-07-20_16h52.51.871,Agingstudy,2020.2.10,Win32,60,,,,,A,,,,,,,,,,,,,,,2,1,0.3235,0,87,87,87,1,2,NEW,SIMILAR,,,,,,,,
,,,,,,,,,,,,,,,,TestWords/FI_GU_CHA.wav,,5cd2ee8d66bd5c001747f52e,2021-07-20_16h52.51.871,Agingstudy,2020.2.10,Win32,60,,,,,A,,,,,,,,,,,,,,,1,0,0.0023,0,88,88,88,1,2,NEW,NEW,,,,,,,,
,,,,,,,,,,,,,,,,TestWords/GA_MU_ZI.wav,,5cd2ee8d66bd5c001747f52e,2021-07-20_16h52.51.871,Agingstudy,2020.2.10,Win32,60,,,,,A,,,,,,,,,,,,,,,1,1,0.1925,0,89,89,89,1,1,OLD,OLD,,,,,,,,
,,,,,,,,,,,,,,,,TestWords/DAI_RU_CHI.wav,,5cd2ee8d66bd5c001747f52e,2021-07-20_16h52.51.871,Agingstudy,2020.2.10,Win32,60,,,,,A,,,,,,,,,,,,,,,1,1,0.2395,0,90,90,90,1,1,OLD,OLD,,,,,,,,
,,,,,,,,,,,,,,,,TestWords/FU_RAI_ZO.wav,,5cd2ee8d66bd5c001747f52e,2021-07-20_16h52.51.871,Agingstudy,2020.2.10,Win32,60,,,,,A,,,,,,,,,,,,,,,2,1,0.175,0,91,91,91,1,2,NEW,SIMILAR,,,,,,,,
,,,,,,,,,,,,,,,,TestWords/GU_CHAI_PI.wav,,5cd2ee8d66bd5c001747f52e,2021-07-20_16h52.51.871,Agingstudy,2020.2.10,Win32,60,,,,,A,,,,,,,,,,,,,,,1,0,0.0865,0,92,92,92,1,2,NEW,NEW,,,,,,,,
,,,,,,,,,,,,,,,,TestWords/GA_MU_ZI.wav,,5cd2ee8d66bd5c001747f52e,2021-07-20_16h52.51.871,Agingstudy,2020.2.10,Win32,60,,,,,A,,,,,,,,,,,,,,,1,1,0.1206,0,93,93,93,1,1,OLD,OLD,,,,,,,,
,,,,,,,,,,,,,,,,TestWords/DAI_RU_CHI.wav,,5cd2ee8d66bd5c001747f52e,2021-07-20_16h52.51.871,Agingstudy,2020.2.10,Win32,60,,,,,A,,,,,,,,,,,,,,,1,1,0.9231,0,94,94,94,1,1,OLD,OLD,,,,,,,,
,,,,,,,,,,,,,,,,TestWords/FU_ZO_RAI.wav,,5cd2ee8d66bd5c001747f52e,2021-07-20_16h52.51.871,Agingstudy,2020.2.10,Win32,60,,,,,A,,,,,,,,,,,,,,,2,1,1.448,0,95,95,95,1,2,NEW,SIMILAR,,,,,,,,
,,,,,,,,,,,,,,,,TestWords/VAI_HO_LA.wav,,5cd2ee8d66bd5c001747f52e,2021-07-20_16h52.51.871,Agingstudy,2020.2.10,Win32,60,,,,,A,,,,,,,,,,,,,,,2,1,0.2526,0,96,96,96,1,2,NEW,NEW,,,,,,,,
,,,,,,,,,,,,,,,,TestWords/DAI_RU_CHI.wav,,5cd2ee8d66bd5c001747f52e,2021-07-20_16h52.51.871,Agingstudy,2020.2.10,Win32,60,,,,,A,,,,,,,,,,,,,,,1,1,0.1177,0,97,97,97,1,1,OLD,OLD,,,,,,,,
,,,,,,,,,,,,,,,,TestWords/LA_ZAY_CHAI.wav,,5cd2ee8d66bd5c001747f52e,2021-07-20_16h52.51.871,Agingstudy,2020.2.10,Win32,60,,,,,A,,,,,,,,,,,,,,,1,0,0.1012,0,98,98,98,1,2,NEW,NEW,,,,,,,,
,,,,,,,,,,,,,,,,TestWords/RAI_FU_ZO.wav,,5cd2ee8d66bd5c001747f52e,2021-07-20_16h52.51.871,Agingstudy,2020.2.10,Win32,60,,,,,A,,,,,,,,,,,,,,,1,0,0.6572,0,99,99,99,1,2,NEW,SIMILAR,,,,,,,,
,,,,,,,,,,,,,,,,,,5cd2ee8d66bd5c001747f52e,2021-07-20_16h52.51.871,Agingstudy,2020.2.10,Win32,60,,,,,,,,,,,,,,,,,,,,,,,,,,,,,,,0,0,0,0,1,,,
,,,,,,,,,,,,,,,,,,5cd2ee8d66bd5c001747f52e,2021-07-20_16h52.51.871,Agingstudy,2020.2.10,Win32,60,,,,,,,,,,,,,,,,,,,,,,,,,,,,,,,,,,,,return,18.2407,
