Welcome0Continue.keys,Welcome0Continue.rt,SoundCheckBegin.keys,SoundCheckBegin.rt,SoundCheckEndKey.keys,SoundCheckEndKey.rt,HeadphoneContinueKey.keys,HeadphoneContinueKey.rt,CheckResp.keys,CheckResp.corr,CheckResp.rt,HeadphoneLoop.thisRepN,HeadphoneLoop.thisTrialN,HeadphoneLoop.thisN,HeadphoneLoop.thisIndex,HeadphoneLoop.ran,File,Correct,participant,date,expName,psychopyVersion,OS,frameRate,ContinueKey8.keys,ContinueKey8.rt,MSTWelcomeContKey.keys,MSTWelcomeContKey.rt,Condition,MSTTrainIntroKey.keys,MSTTrainIntroKey.rt,MSTTrainKeys.keys,MSTTrainKeys.corr,MSTTrainKeys.rt,MSTTrainLoop.thisRepN,MSTTrainLoop.thisTrialN,MSTTrainLoop.thisN,MSTTrainLoop.thisIndex,MSTTrainLoop.ran,SoundFile,Type,MSTTestBeginKey.keys,MSTTestBeginKey.rt,MST_resp.keys,MST_resp.corr,MST_resp.rt,MSTPlayLoop.thisRepN,MSTPlayLoop.thisTrialN,MSTPlayLoop.thisN,MSTPlayLoop.thisIndex,MSTPlayLoop.ran,WordCorrect,Correct_type,WordType,MSTLoop.thisRepN,MSTLoop.thisTrialN,MSTLoop.thisN,MSTLoop.thisIndex,MSTLoop.ran,EndAllKey.keys,EndAllKey.rt,FeedbackResp.text
space,10.6235,space,5.4202,space,5.2869,space,10.7205,3,1,2.6407,0,0,0,4,1,Headphone/t3_1.wav,3,5e80df6ef5008e7bff2ec9b3,2021-07-19_17h37.56.791,Agingstudy,2020.2.10,Win32,60,,,,,,,,,,,,,,,,,,,,,,,,,,,,,,,,,,,,,,
,,,,,,,,1,1,0.3164,0,1,1,0,1,Headphone/t1_1.wav,1,5e80df6ef5008e7bff2ec9b3,2021-07-19_17h37.56.791,Agingstudy,2020.2.10,Win32,60,,,,,,,,,,,,,,,,,,,,,,,,,,,,,,,,,,,,,,
,,,,,,,,3,1,1.7745,0,2,2,5,1,Headphone/t3_2.wav,3,5e80df6ef5008e7bff2ec9b3,2021-07-19_17h37.56.791,Agingstudy,2020.2.10,Win32,60,,,,,,,,,,,,,,,,,,,,,,,,,,,,,,,,,,,,,,
,,,,,,,,1,1,0.9986,0,3,3,1,1,Headphone/t1_2.wav,1,5e80df6ef5008e7bff2ec9b3,2021-07-19_17h37.56.791,Agingstudy,2020.2.10,Win32,60,,,,,,,,,,,,,,,,,,,,,,,,,,,,,,,,,,,,,,
,,,,,,,,2,1,0.3516,0,4,4,2,1,Headphone/t2_1.wav,2,5e80df6ef5008e7bff2ec9b3,2021-07-19_17h37.56.791,Agingstudy,2020.2.10,Win32,60,,,,,,,,,,,,,,,,,,,,,,,,,,,,,,,,,,,,,,
,,,,,,,,2,1,0.5009,0,5,5,3,1,Headphone/t2_2.wav,2,5e80df6ef5008e7bff2ec9b3,2021-07-19_17h37.56.791,Agingstudy,2020.2.10,Win32,60,,,,,,,,,,,,,,,,,,,,,,,,,,,,,,,,,,,,,,
,,,,,,,,,,,,,,,,,2,5e80df6ef5008e7bff2ec9b3,2021-07-19_17h37.56.791,Agingstudy,2020.2.10,Win32,60,space,20.6921,space,5.2482,1,space,3.1261,2,1,3.5569,0,0,0,0,1,Training/FO_YI_LAY.wav,NEW,,,,,,,,,,,,,,,,,,,,,
,,,,,,,,,,,,,,,,,1,5e80df6ef5008e7bff2ec9b3,2021-07-19_17h37.56.791,Agingstudy,2020.2.10,Win32,60,,,,,,,,1,1,2.9533,0,1,1,1,1,Training/FO_YI_LAY.wav,OLD,,,,,,,,,,,,,,,,,,,,,
,,,,,,,,,,,,,,,,,2,5e80df6ef5008e7bff2ec9b3,2021-07-19_17h37.56.791,Agingstudy,2020.2.10,Win32,60,,,,,,,,2,1,1.9355,0,2,2,2,1,Training/YO_BU_JAY.wav,NEW,,,,,,,,,,,,,,,,,,,,,
,,,,,,,,,,,,,,,,,2,5e80df6ef5008e7bff2ec9b3,2021-07-19_17h37.56.791,Agingstudy,2020.2.10,Win32,60,,,,,,,,2,1,3.9586,0,3,3,3,1,Training/JAY_YO_BU.wav,SIMILAR,,,,,,,,,,,,,,,,,,,,,
,,,,,,,,,,,,,,,,,1,5e80df6ef5008e7bff2ec9b3,2021-07-19_17h37.56.791,Agingstudy,2020.2.10,Win32,60,,,,,,,,1,1,1.6862,0,4,4,4,1,Training/FO_YI_LAY.wav,OLD,,,,,,,,,,,,,,,,,,,,,
,,,,,,,,,,,,,,,,TestWords/SI_VAI_CHU.wav,,5e80df6ef5008e7bff2ec9b3,2021-07-19_17h37.56.791,Agingstudy,2020.2.10,Win32,60,,,,,F,,,,,,,,,,,,,space,8.9789,2,1,3.8361,0,0,0,0,1,2,NEW,NEW,,,,,,,,
,,,,,,,,,,,,,,,,TestWords/HO_NAY_VA.wav,,5e80df6ef5008e7bff2ec9b3,2021-07-19_17h37.56.791,Agingstudy,2020.2.10,Win32,60,,,,,F,,,,,,,,,,,,,,,2,1,1.0941,0,1,1,1,1,2,NEW,NEW,,,,,,,,
,,,,,,,,,,,,,,,,TestWords/KAI_LAY_TA.wav,,5e80df6ef5008e7bff2ec9b3,2021-07-19_17h37.56.791,Agingstudy,2020.2.10,Win32,60,,,,,F,,,,,,,,,,,,,,,2,1,1.5409,0,2,2,2,1,2,NEW,NEW,,,,,,,,
,,,,,,,,,,,,,,,,TestWords/PAI_LU_WA.wav,,5e80df6ef5008e7bff2ec9b3,2021-07-19_17h37.56.791,Agingstudy,2020.2.10,Win32,60,,,,,F,,,,,,,,,,,,,,,2,1,1.2051,0,3,3,3,1,2,NEW,NEW,,,,,,,,
,,,,,,,,,,,,,,,,TestWords/WAI_VU_NA.wav,,5e80df6ef5008e7bff2ec9b3,2021-07-19_17h37.56.791,Agingstudy,2020.2.10,Win32,60,,,,,F,,,,,,,,,,,,,,,2,1,1.6397,0,4,4,4,1,2,NEW,NEW,,,,,,,,
,,,,,,,,,,,,,,,,TestWords/VAI_HO_LA.wav,,5e80df6ef5008e7bff2ec9b3,2021-07-19_17h37.56.791,Agingstudy,2020.2.10,Win32,60,,,,,F,,,,,,,,,,,,,,,2,1,1.1847,0,5,5,5,1,2,NEW,NEW,,,,,,,,
,,,,,,,,,,,,,,,,TestWords/GU_CHAI_PI.wav,,5e80df6ef5008e7bff2ec9b3,2021-07-19_17h37.56.791,Agingstudy,2020.2.10,Win32,60,,,,,F,,,,,,,,,,,,,,,2,1,0.5757,0,6,6,6,1,2,NEW,NEW,,,,,,,,
,,,,,,,,,,,,,,,,TestWords/KO_SU_FAI.wav,,5e80df6ef5008e7bff2ec9b3,2021-07-19_17h37.56.791,Agingstudy,2020.2.10,Win32,60,,,,,F,,,,,,,,,,,,,,,2,1,0.5508,0,7,7,7,1,2,NEW,NEW,,,,,,,,
,,,,,,,,,,,,,,,,TestWords/KAI_LAY_TA.wav,,5e80df6ef5008e7bff2ec9b3,2021-07-19_17h37.56.791,Agingstudy,2020.2.10,Win32,60,,,,,F,,,,,,,,,,,,,,,1,1,0.7546,0,8,8,8,1,1,OLD,OLD,,,,,,,,
,,,,,,,,,,,,,,,,TestWords/BA_KAY_LI.wav,,5e80df6ef5008e7bff2ec9b3,2021-07-19_17h37.56.791,Agingstudy,2020.2.10,Win32,60,,,,,F,,,,,,,,,,,,,,,2,1,1.1836,0,9,9,9,1,2,NEW,NEW,,,,,,,,
,,,,,,,,,,,,,,,,TestWords/DAI_RU_CHI.wav,,5e80df6ef5008e7bff2ec9b3,2021-07-19_17h37.56.791,Agingstudy,2020.2.10,Win32,60,,,,,F,,,,,,,,,,,,,,,2,1,2.1865,0,10,10,10,1,2,NEW,NEW,,,,,,,,
,,,,,,,,,,,,,,,,TestWords/WAI_NA_VU.wav,,5e80df6ef5008e7bff2ec9b3,2021-07-19_17h37.56.791,Agingstudy,2020.2.10,Win32,60,,,,,F,,,,,,,,,,,,,,,1,0,1.8211,0,11,11,11,1,2,NEW,SIMILAR,,,,,,,,
,,,,,,,,,,,,,,,,TestWords/DA_CHU_VAI.wav,,5e80df6ef5008e7bff2ec9b3,2021-07-19_17h37.56.791,Agingstudy,2020.2.10,Win32,60,,,,,F,,,,,,,,,,,,,,,2,1,0.7984,0,12,12,12,1,2,NEW,NEW,,,,,,,,
,,,,,,,,,,,,,,,,TestWords/KAI_LAY_TA.wav,,5e80df6ef5008e7bff2ec9b3,2021-07-19_17h37.56.791,Agingstudy,2020.2.10,Win32,60,,,,,F,,,,,,,,,,,,,,,1,1,0.4812,0,13,13,13,1,1,OLD,OLD,,,,,,,,
,,,,,,,,,,,,,,,,TestWords/KO_SU_FAI.wav,,5e80df6ef5008e7bff2ec9b3,2021-07-19_17h37.56.791,Agingstudy,2020.2.10,Win32,60,,,,,F,,,,,,,,,,,,,,,2,0,0.4093,0,14,14,14,1,1,OLD,OLD,,,,,,,,
,,,,,,,,,,,,,,,,TestWords/VU_NA_WAI.wav,,5e80df6ef5008e7bff2ec9b3,2021-07-19_17h37.56.791,Agingstudy,2020.2.10,Win32,60,,,,,F,,,,,,,,,,,,,,,1,0,1.3628,0,15,15,15,1,2,NEW,SIMILAR,,,,,,,,
,,,,,,,,,,,,,,,,TestWords/DAI_RU_CHI.wav,,5e80df6ef5008e7bff2ec9b3,2021-07-19_17h37.56.791,Agingstudy,2020.2.10,Win32,60,,,,,F,,,,,,,,,,,,,,,1,1,1.4039,0,16,16,16,1,1,OLD,OLD,,,,,,,,
,,,,,,,,,,,,,,,,TestWords/KAY_LI_BA.wav,,5e80df6ef5008e7bff2ec9b3,2021-07-19_17h37.56.791,Agingstudy,2020.2.10,Win32,60,,,,,F,,,,,,,,,,,,,,,1,0,0.7222,0,17,17,17,1,2,NEW,SIMILAR,,,,,,,,
,,,,,,,,,,,,,,,,TestWords/RAY_PA_TI.wav,,5e80df6ef5008e7bff2ec9b3,2021-07-19_17h37.56.791,Agingstudy,2020.2.10,Win32,60,,,,,F,,,,,,,,,,,,,,,2,1,0.2843,0,18,18,18,1,2,NEW,NEW,,,,,,,,
,,,,,,,,,,,,,,,,TestWords/KAI_LAY_TA.wav,,5e80df6ef5008e7bff2ec9b3,2021-07-19_17h37.56.791,Agingstudy,2020.2.10,Win32,60,,,,,F,,,,,,,,,,,,,,,1,1,2.3797,0,19,19,19,1,1,OLD,OLD,,,,,,,,
,,,,,,,,,,,,,,,,TestWords/VU_WAI_NA.wav,,5e80df6ef5008e7bff2ec9b3,2021-07-19_17h37.56.791,Agingstudy,2020.2.10,Win32,60,,,,,F,,,,,,,,,,,,,,,1,0,0.6048,0,20,20,20,1,2,NEW,SIMILAR,,,,,,,,
,,,,,,,,,,,,,,,,TestWords/KO_SU_FAI.wav,,5e80df6ef5008e7bff2ec9b3,2021-07-19_17h37.56.791,Agingstudy,2020.2.10,Win32,60,,,,,F,,,,,,,,,,,,,,,2,0,1.0521,0,21,21,21,1,1,OLD,OLD,,,,,,,,
,,,,,,,,,,,,,,,,TestWords/HI_NAY_VA.wav,,5e80df6ef5008e7bff2ec9b3,2021-07-19_17h37.56.791,Agingstudy,2020.2.10,Win32,60,,,,,F,,,,,,,,,,,,,,,2,1,1.025,0,22,22,22,1,2,NEW,NEW,,,,,,,,
,,,,,,,,,,,,,,,,TestWords/KAI_LAY_TA.wav,,5e80df6ef5008e7bff2ec9b3,2021-07-19_17h37.56.791,Agingstudy,2020.2.10,Win32,60,,,,,F,,,,,,,,,,,,,,,1,1,0.4342,0,23,23,23,1,1,OLD,OLD,,,,,,,,
,,,,,,,,,,,,,,,,TestWords/RAY_PA_TI.wav,,5e80df6ef5008e7bff2ec9b3,2021-07-19_17h37.56.791,Agingstudy,2020.2.10,Win32,60,,,,,F,,,,,,,,,,,,,,,1,1,0.9838,0,24,24,24,1,1,OLD,OLD,,,,,,,,
,,,,,,,,,,,,,,,,TestWords/DAI_RU_CHI.wav,,5e80df6ef5008e7bff2ec9b3,2021-07-19_17h37.56.791,Agingstudy,2020.2.10,Win32,60,,,,,F,,,,,,,,,,,,,,,1,1,0.7023,0,25,25,25,1,1,OLD,OLD,,,,,,,,
,,,,,,,,,,,,,,,,TestWords/NA_VU_WAI.wav,,5e80df6ef5008e7bff2ec9b3,2021-07-19_17h37.56.791,Agingstudy,2020.2.10,Win32,60,,,,,F,,,,,,,,,,,,,,,2,1,2.3014,0,26,26,26,1,2,NEW,SIMILAR,,,,,,,,
,,,,,,,,,,,,,,,,TestWords/KAY_BA_LI.wav,,5e80df6ef5008e7bff2ec9b3,2021-07-19_17h37.56.791,Agingstudy,2020.2.10,Win32,60,,,,,F,,,,,,,,,,,,,,,1,0,1.0191,0,27,27,27,1,2,NEW,SIMILAR,,,,,,,,
,,,,,,,,,,,,,,,,TestWords/KO_SU_FAI.wav,,5e80df6ef5008e7bff2ec9b3,2021-07-19_17h37.56.791,Agingstudy,2020.2.10,Win32,60,,,,,F,,,,,,,,,,,,,,,1,1,0.4542,0,28,28,28,1,1,OLD,OLD,,,,,,,,
,,,,,,,,,,,,,,,,TestWords/KAI_LAY_TA.wav,,5e80df6ef5008e7bff2ec9b3,2021-07-19_17h37.56.791,Agingstudy,2020.2.10,Win32,60,,,,,F,,,,,,,,,,,,,,,1,1,0.4124,0,29,29,29,1,1,OLD,OLD,,,,,,,,
,,,,,,,,,,,,,,,,TestWords/RAY_PA_TI.wav,,5e80df6ef5008e7bff2ec9b3,2021-07-19_17h37.56.791,Agingstudy,2020.2.10,Win32,60,,,,,F,,,,,,,,,,,,,,,2,0,0.2219,0,30,30,30,1,1,OLD,OLD,,,,,,,,
,,,,,,,,,,,,,,,,TestWords/NU_CHAY_SO.wav,,5e80df6ef5008e7bff2ec9b3,2021-07-19_17h37.56.791,Agingstudy,2020.2.10,Win32,60,,,,,F,,,,,,,,,,,,,,,2,1,0.1411,0,31,31,31,1,2,NEW,NEW,,,,,,,,
,,,,,,,,,,,,,,,,TestWords/DAI_RU_CHI.wav,,5e80df6ef5008e7bff2ec9b3,2021-07-19_17h37.56.791,Agingstudy,2020.2.10,Win32,60,,,,,F,,,,,,,,,,,,,,,1,1,0.3813,0,32,32,32,1,1,OLD,OLD,,,,,,,,
,,,,,,,,,,,,,,,,TestWords/NA_WAI_VU.wav,,5e80df6ef5008e7bff2ec9b3,2021-07-19_17h37.56.791,Agingstudy,2020.2.10,Win32,60,,,,,F,,,,,,,,,,,,,,,1,0,0.8253,0,33,33,33,1,2,NEW,SIMILAR,,,,,,,,
,,,,,,,,,,,,,,,,TestWords/GA_MU_ZI.wav,,5e80df6ef5008e7bff2ec9b3,2021-07-19_17h37.56.791,Agingstudy,2020.2.10,Win32,60,,,,,F,,,,,,,,,,,,,,,2,1,0.2518,0,34,34,34,1,2,NEW,NEW,,,,,,,,
,,,,,,,,,,,,,,,,TestWords/KAI_LAY_TA.wav,,5e80df6ef5008e7bff2ec9b3,2021-07-19_17h37.56.791,Agingstudy,2020.2.10,Win32,60,,,,,F,,,,,,,,,,,,,,,1,1,0.8347,0,35,35,35,1,1,OLD,OLD,,,,,,,,
,,,,,,,,,,,,,,,,TestWords/LI_BA_KAY.wav,,5e80df6ef5008e7bff2ec9b3,2021-07-19_17h37.56.791,Agingstudy,2020.2.10,Win32,60,,,,,F,,,,,,,,,,,,,,,2,1,1.2861,0,36,36,36,1,2,NEW,SIMILAR,,,,,,,,
,,,,,,,,,,,,,,,,TestWords/KO_SU_FAI.wav,,5e80df6ef5008e7bff2ec9b3,2021-07-19_17h37.56.791,Agingstudy,2020.2.10,Win32,60,,,,,F,,,,,,,,,,,,,,,1,1,0.493,0,37,37,37,1,1,OLD,OLD,,,,,,,,
,,,,,,,,,,,,,,,,TestWords/RAY_PA_TI.wav,,5e80df6ef5008e7bff2ec9b3,2021-07-19_17h37.56.791,Agingstudy,2020.2.10,Win32,60,,,,,F,,,,,,,,,,,,,,,1,1,0.179,0,38,38,38,1,1,OLD,OLD,,,,,,,,
,,,,,,,,,,,,,,,,TestWords/TAI_SA_GI.wav,,5e80df6ef5008e7bff2ec9b3,2021-07-19_17h37.56.791,Agingstudy,2020.2.10,Win32,60,,,,,F,,,,,,,,,,,,,,,2,1,0.3677,0,39,39,39,1,2,NEW,NEW,,,,,,,,
,,,,,,,,,,,,,,,,TestWords/DAI_RU_CHI.wav,,5e80df6ef5008e7bff2ec9b3,2021-07-19_17h37.56.791,Agingstudy,2020.2.10,Win32,60,,,,,F,,,,,,,,,,,,,,,1,1,0.4309,0,40,40,40,1,1,OLD,OLD,,,,,,,,
,,,,,,,,,,,,,,,,TestWords/GA_MU_ZI.wav,,5e80df6ef5008e7bff2ec9b3,2021-07-19_17h37.56.791,Agingstudy,2020.2.10,Win32,60,,,,,F,,,,,,,,,,,,,,,2,0,0.2034,0,41,41,41,1,1,OLD,OLD,,,,,,,,
,,,,,,,,,,,,,,,,TestWords/KAI_LAY_TA.wav,,5e80df6ef5008e7bff2ec9b3,2021-07-19_17h37.56.791,Agingstudy,2020.2.10,Win32,60,,,,,F,,,,,,,,,,,,,,,1,1,0.467,0,42,42,42,1,1,OLD,OLD,,,,,,,,
,,,,,,,,,,,,,,,,TestWords/GI_SA_TAI.wav,,5e80df6ef5008e7bff2ec9b3,2021-07-19_17h37.56.791,Agingstudy,2020.2.10,Win32,60,,,,,F,,,,,,,,,,,,,,,2,1,0.1041,0,43,43,43,1,2,NEW,SIMILAR,,,,,,,,
,,,,,,,,,,,,,,,,TestWords/BA_LI_KAY.wav,,5e80df6ef5008e7bff2ec9b3,2021-07-19_17h37.56.791,Agingstudy,2020.2.10,Win32,60,,,,,F,,,,,,,,,,,,,,,2,1,0.4454,0,44,44,44,1,2,NEW,SIMILAR,,,,,,,,
,,,,,,,,,,,,,,,,TestWords/KO_SU_FAI.wav,,5e80df6ef5008e7bff2ec9b3,2021-07-19_17h37.56.791,Agingstudy,2020.2.10,Win32,60,,,,,F,,,,,,,,,,,,,,,2,0,0.9716,0,45,45,45,1,1,OLD,OLD,,,,,,,,
,,,,,,,,,,,,,,,,TestWords/RAY_PA_TI.wav,,5e80df6ef5008e7bff2ec9b3,2021-07-19_17h37.56.791,Agingstudy,2020.2.10,Win32,60,,,,,F,,,,,,,,,,,,,,,1,1,0.3517,0,46,46,46,1,1,OLD,OLD,,,,,,,,
,,,,,,,,,,,,,,,,TestWords/GA_MU_ZI.wav,,5e80df6ef5008e7bff2ec9b3,2021-07-19_17h37.56.791,Agingstudy,2020.2.10,Win32,60,,,,,F,,,,,,,,,,,,,,,1,1,0.5685,0,47,47,47,1,1,OLD,OLD,,,,,,,,
,,,,,,,,,,,,,,,,TestWords/LU_HAI_BO.wav,,5e80df6ef5008e7bff2ec9b3,2021-07-19_17h37.56.791,Agingstudy,2020.2.10,Win32,60,,,,,F,,,,,,,,,,,,,,,2,1,0.0684,0,48,48,48,1,2,NEW,NEW,,,,,,,,
,,,,,,,,,,,,,,,,TestWords/KAI_LAY_TA.wav,,5e80df6ef5008e7bff2ec9b3,2021-07-19_17h37.56.791,Agingstudy,2020.2.10,Win32,60,,,,,F,,,,,,,,,,,,,,,1,1,0.7172,0,49,49,49,1,1,OLD,OLD,,,,,,,,
,,,,,,,,,,,,,,,,TestWords/DAI_RU_CHI.wav,,5e80df6ef5008e7bff2ec9b3,2021-07-19_17h37.56.791,Agingstudy,2020.2.10,Win32,60,,,,,F,,,,,,,,,,,,,,,1,1,0.2728,0,50,50,50,1,1,OLD,OLD,,,,,,,,
,,,,,,,,,,,,,,,,TestWords/GI_TAI_SA.wav,,5e80df6ef5008e7bff2ec9b3,2021-07-19_17h37.56.791,Agingstudy,2020.2.10,Win32,60,,,,,F,,,,,,,,,,,,,,,2,1,0.3007,0,51,51,51,1,2,NEW,SIMILAR,,,,,,,,
,,,,,,,,,,,,,,,,TestWords/LI_KAY_BA.wav,,5e80df6ef5008e7bff2ec9b3,2021-07-19_17h37.56.791,Agingstudy,2020.2.10,Win32,60,,,,,F,,,,,,,,,,,,,,,1,0,1.5353,0,52,52,52,1,2,NEW,SIMILAR,,,,,,,,
,,,,,,,,,,,,,,,,TestWords/RAY_PA_TI.wav,,5e80df6ef5008e7bff2ec9b3,2021-07-19_17h37.56.791,Agingstudy,2020.2.10,Win32,60,,,,,F,,,,,,,,,,,,,,,2,0,0.2799,0,53,53,53,1,1,OLD,OLD,,,,,,,,
,,,,,,,,,,,,,,,,TestWords/KO_SU_FAI.wav,,5e80df6ef5008e7bff2ec9b3,2021-07-19_17h37.56.791,Agingstudy,2020.2.10,Win32,60,,,,,F,,,,,,,,,,,,,,,1,1,0.2391,0,54,54,54,1,1,OLD,OLD,,,,,,,,
,,,,,,,,,,,,,,,,TestWords/DAY_PU_MO.wav,,5e80df6ef5008e7bff2ec9b3,2021-07-19_17h37.56.791,Agingstudy,2020.2.10,Win32,60,,,,,F,,,,,,,,,,,,,,,2,1,0.9567,0,55,55,55,1,2,NEW,NEW,,,,,,,,
,,,,,,,,,,,,,,,,TestWords/KAI_LAY_TA.wav,,5e80df6ef5008e7bff2ec9b3,2021-07-19_17h37.56.791,Agingstudy,2020.2.10,Win32,60,,,,,F,,,,,,,,,,,,,,,1,1,0.1863,0,56,56,56,1,1,OLD,OLD,,,,,,,,
,,,,,,,,,,,,,,,,TestWords/GA_MU_ZI.wav,,5e80df6ef5008e7bff2ec9b3,2021-07-19_17h37.56.791,Agingstudy,2020.2.10,Win32,60,,,,,F,,,,,,,,,,,,,,,1,1,1.0013,0,57,57,57,1,1,OLD,OLD,,,,,,,,
,,,,,,,,,,,,,,,,TestWords/CHU_LA_PAY.wav,,5e80df6ef5008e7bff2ec9b3,2021-07-19_17h37.56.791,Agingstudy,2020.2.10,Win32,60,,,,,F,,,,,,,,,,,,,,,2,1,0.2694,0,58,58,58,1,2,NEW,NEW,,,,,,,,
,,,,,,,,,,,,,,,,TestWords/DAI_RU_CHI.wav,,5e80df6ef5008e7bff2ec9b3,2021-07-19_17h37.56.791,Agingstudy,2020.2.10,Win32,60,,,,,F,,,,,,,,,,,,,,,1,1,0.3339,0,59,59,59,1,1,OLD,OLD,,,,,,,,
,,,,,,,,,,,,,,,,TestWords/SA_TAI_GI.wav,,5e80df6ef5008e7bff2ec9b3,2021-07-19_17h37.56.791,Agingstudy,2020.2.10,Win32,60,,,,,F,,,,,,,,,,,,,,,2,1,0.2496,0,60,60,60,1,2,NEW,SIMILAR,,,,,,,,
,,,,,,,,,,,,,,,,TestWords/RAY_PA_TI.wav,,5e80df6ef5008e7bff2ec9b3,2021-07-19_17h37.56.791,Agingstudy,2020.2.10,Win32,60,,,,,F,,,,,,,,,,,,,,,1,1,1.7459,0,61,61,61,1,1,OLD,OLD,,,,,,,,
,,,,,,,,,,,,,,,,TestWords/KAI_LAY_TA.wav,,5e80df6ef5008e7bff2ec9b3,2021-07-19_17h37.56.791,Agingstudy,2020.2.10,Win32,60,,,,,F,,,,,,,,,,,,,,,1,1,0.331,0,62,62,62,1,1,OLD,OLD,,,,,,,,
,,,,,,,,,,,,,,,,TestWords/FU_RAI_ZO.wav,,5e80df6ef5008e7bff2ec9b3,2021-07-19_17h37.56.791,Agingstudy,2020.2.10,Win32,60,,,,,F,,,,,,,,,,,,,,,2,1,0.4542,0,63,63,63,1,2,NEW,NEW,,,,,,,,
,,,,,,,,,,,,,,,,TestWords/KO_SU_FAI.wav,,5e80df6ef5008e7bff2ec9b3,2021-07-19_17h37.56.791,Agingstudy,2020.2.10,Win32,60,,,,,F,,,,,,,,,,,,,,,2,0,0.5635,0,64,64,64,1,1,OLD,OLD,,,,,,,,
,,,,,,,,,,,,,,,,TestWords/GA_MU_ZI.wav,,5e80df6ef5008e7bff2ec9b3,2021-07-19_17h37.56.791,Agingstudy,2020.2.10,Win32,60,,,,,F,,,,,,,,,,,,,,,1,1,0.6045,0,65,65,65,1,1,OLD,OLD,,,,,,,,
,,,,,,,,,,,,,,,,TestWords/DAY_MO_PU.wav,,5e80df6ef5008e7bff2ec9b3,2021-07-19_17h37.56.791,Agingstudy,2020.2.10,Win32,60,,,,,F,,,,,,,,,,,,,,,2,1,0.5043,0,66,66,66,1,2,NEW,SIMILAR,,,,,,,,
,,,,,,,,,,,,,,,,TestWords/DAI_RU_CHI.wav,,5e80df6ef5008e7bff2ec9b3,2021-07-19_17h37.56.791,Agingstudy,2020.2.10,Win32,60,,,,,F,,,,,,,,,,,,,,,1,1,0.1889,0,67,67,67,1,1,OLD,OLD,,,,,,,,
,,,,,,,,,,,,,,,,TestWords/FI_GU_CHA.wav,,5e80df6ef5008e7bff2ec9b3,2021-07-19_17h37.56.791,Agingstudy,2020.2.10,Win32,60,,,,,F,,,,,,,,,,,,,,,2,1,1.1842,0,68,68,68,1,2,NEW,NEW,,,,,,,,
,,,,,,,,,,,,,,,,TestWords/GA_MU_ZI.wav,,5e80df6ef5008e7bff2ec9b3,2021-07-19_17h37.56.791,Agingstudy,2020.2.10,Win32,60,,,,,F,,,,,,,,,,,,,,,1,1,0.4515,0,69,69,69,1,1,OLD,OLD,,,,,,,,
,,,,,,,,,,,,,,,,TestWords/RAY_PA_TI.wav,,5e80df6ef5008e7bff2ec9b3,2021-07-19_17h37.56.791,Agingstudy,2020.2.10,Win32,60,,,,,F,,,,,,,,,,,,,,,1,1,0.403,0,70,70,70,1,1,OLD,OLD,,,,,,,,
,,,,,,,,,,,,,,,,TestWords/SA_GI_TAI.wav,,5e80df6ef5008e7bff2ec9b3,2021-07-19_17h37.56.791,Agingstudy,2020.2.10,Win32,60,,,,,F,,,,,,,,,,,,,,,2,1,0.3437,0,71,71,71,1,2,NEW,SIMILAR,,,,,,,,
,,,,,,,,,,,,,,,,TestWords/MO_DAY_PU.wav,,5e80df6ef5008e7bff2ec9b3,2021-07-19_17h37.56.791,Agingstudy,2020.2.10,Win32,60,,,,,F,,,,,,,,,,,,,,,2,1,0.3425,0,72,72,72,1,2,NEW,SIMILAR,,,,,,,,
,,,,,,,,,,,,,,,,TestWords/KO_SU_FAI.wav,,5e80df6ef5008e7bff2ec9b3,2021-07-19_17h37.56.791,Agingstudy,2020.2.10,Win32,60,,,,,F,,,,,,,,,,,,,,,1,1,0.5754,0,73,73,73,1,1,OLD,OLD,,,,,,,,
,,,,,,,,,,,,,,,,TestWords/RAI_ZO_FU.wav,,5e80df6ef5008e7bff2ec9b3,2021-07-19_17h37.56.791,Agingstudy,2020.2.10,Win32,60,,,,,F,,,,,,,,,,,,,,,2,1,0.5193,0,74,74,74,1,2,NEW,SIMILAR,,,,,,,,
,,,,,,,,,,,,,,,,TestWords/GA_MU_ZI.wav,,5e80df6ef5008e7bff2ec9b3,2021-07-19_17h37.56.791,Agingstudy,2020.2.10,Win32,60,,,,,F,,,,,,,,,,,,,,,1,1,0.2691,0,75,75,75,1,1,OLD,OLD,,,,,,,,
,,,,,,,,,,,,,,,,TestWords/DAI_RU_CHI.wav,,5e80df6ef5008e7bff2ec9b3,2021-07-19_17h37.56.791,Agingstudy,2020.2.10,Win32,60,,,,,F,,,,,,,,,,,,,,,1,1,0.2506,0,76,76,76,1,1,OLD,OLD,,,,,,,,
,,,,,,,,,,,,,,,,TestWords/TAI_GI_SA.wav,,5e80df6ef5008e7bff2ec9b3,2021-07-19_17h37.56.791,Agingstudy,2020.2.10,Win32,60,,,,,F,,,,,,,,,,,,,,,2,1,1.4909,0,77,77,77,1,2,NEW,SIMILAR,,,,,,,,
,,,,,,,,,,,,,,,,TestWords/RAY_PA_TI.wav,,5e80df6ef5008e7bff2ec9b3,2021-07-19_17h37.56.791,Agingstudy,2020.2.10,Win32,60,,,,,F,,,,,,,,,,,,,,,1,1,0.2863,0,78,78,78,1,1,OLD,OLD,,,,,,,,
,,,,,,,,,,,,,,,,TestWords/PU_DAY_MO.wav,,5e80df6ef5008e7bff2ec9b3,2021-07-19_17h37.56.791,Agingstudy,2020.2.10,Win32,60,,,,,F,,,,,,,,,,,,,,,2,1,1.3957,0,79,79,79,1,2,NEW,SIMILAR,,,,,,,,
,,,,,,,,,,,,,,,,TestWords/KO_SU_FAI.wav,,5e80df6ef5008e7bff2ec9b3,2021-07-19_17h37.56.791,Agingstudy,2020.2.10,Win32,60,,,,,F,,,,,,,,,,,,,,,1,1,0.2267,0,80,80,80,1,1,OLD,OLD,,,,,,,,
,,,,,,,,,,,,,,,,TestWords/ZO_RAI_FU.wav,,5e80df6ef5008e7bff2ec9b3,2021-07-19_17h37.56.791,Agingstudy,2020.2.10,Win32,60,,,,,F,,,,,,,,,,,,,,,2,1,0.2714,0,81,81,81,1,2,NEW,SIMILAR,,,,,,,,
,,,,,,,,,,,,,,,,TestWords/GA_MU_ZI.wav,,5e80df6ef5008e7bff2ec9b3,2021-07-19_17h37.56.791,Agingstudy,2020.2.10,Win32,60,,,,,F,,,,,,,,,,,,,,,1,1,0.1338,0,82,82,82,1,1,OLD,OLD,,,,,,,,
,,,,,,,,,,,,,,,,TestWords/RAY_PA_TI.wav,,5e80df6ef5008e7bff2ec9b3,2021-07-19_17h37.56.791,Agingstudy,2020.2.10,Win32,60,,,,,F,,,,,,,,,,,,,,,1,1,0.2025,0,83,83,83,1,1,OLD,OLD,,,,,,,,
,,,,,,,,,,,,,,,,TestWords/DAI_RU_CHI.wav,,5e80df6ef5008e7bff2ec9b3,2021-07-19_17h37.56.791,Agingstudy,2020.2.10,Win32,60,,,,,F,,,,,,,,,,,,,,,1,1,0.3386,0,84,84,84,1,1,OLD,OLD,,,,,,,,
,,,,,,,,,,,,,,,,TestWords/GA_MU_ZI.wav,,5e80df6ef5008e7bff2ec9b3,2021-07-19_17h37.56.791,Agingstudy,2020.2.10,Win32,60,,,,,F,,,,,,,,,,,,,,,1,1,0.6557,0,85,85,85,1,1,OLD,OLD,,,,,,,,
,,,,,,,,,,,,,,,,TestWords/NO_WA_BAY.wav,,5e80df6ef5008e7bff2ec9b3,2021-07-19_17h37.56.791,Agingstudy,2020.2.10,Win32,60,,,,,F,,,,,,,,,,,,,,,2,1,0.1178,0,86,86,86,1,2,NEW,NEW,,,,,,,,
,,,,,,,,,,,,,,,,TestWords/FU_ZO_RAI.wav,,5e80df6ef5008e7bff2ec9b3,2021-07-19_17h37.56.791,Agingstudy,2020.2.10,Win32,60,,,,,F,,,,,,,,,,,,,,,2,1,1.2307,0,87,87,87,1,2,NEW,SIMILAR,,,,,,,,
,,,,,,,,,,,,,,,,TestWords/KO_SU_FAI.wav,,5e80df6ef5008e7bff2ec9b3,2021-07-19_17h37.56.791,Agingstudy,2020.2.10,Win32,60,,,,,F,,,,,,,,,,,,,,,1,1,0.4013,0,88,88,88,1,1,OLD,OLD,,,,,,,,
,,,,,,,,,,,,,,,,TestWords/PU_MO_DAY.wav,,5e80df6ef5008e7bff2ec9b3,2021-07-19_17h37.56.791,Agingstudy,2020.2.10,Win32,60,,,,,F,,,,,,,,,,,,,,,2,1,0.3046,0,89,89,89,1,2,NEW,SIMILAR,,,,,,,,
,,,,,,,,,,,,,,,,TestWords/RAY_PA_TI.wav,,5e80df6ef5008e7bff2ec9b3,2021-07-19_17h37.56.791,Agingstudy,2020.2.10,Win32,60,,,,,F,,,,,,,,,,,,,,,1,1,0.2039,0,90,90,90,1,1,OLD,OLD,,,,,,,,
,,,,,,,,,,,,,,,,TestWords/DAI_RU_CHI.wav,,5e80df6ef5008e7bff2ec9b3,2021-07-19_17h37.56.791,Agingstudy,2020.2.10,Win32,60,,,,,F,,,,,,,,,,,,,,,1,1,0.2346,0,91,91,91,1,1,OLD,OLD,,,,,,,,
,,,,,,,,,,,,,,,,TestWords/RAI_FU_ZO.wav,,5e80df6ef5008e7bff2ec9b3,2021-07-19_17h37.56.791,Agingstudy,2020.2.10,Win32,60,,,,,F,,,,,,,,,,,,,,,1,0,0.5166,0,92,92,92,1,2,NEW,SIMILAR,,,,,,,,
,,,,,,,,,,,,,,,,TestWords/GA_MU_ZI.wav,,5e80df6ef5008e7bff2ec9b3,2021-07-19_17h37.56.791,Agingstudy,2020.2.10,Win32,60,,,,,F,,,,,,,,,,,,,,,1,1,0.3015,0,93,93,93,1,1,OLD,OLD,,,,,,,,
,,,,,,,,,,,,,,,,TestWords/HA_SI_JAI.wav,,5e80df6ef5008e7bff2ec9b3,2021-07-19_17h37.56.791,Agingstudy,2020.2.10,Win32,60,,,,,F,,,,,,,,,,,,,,,2,1,0.2968,0,94,94,94,1,2,NEW,NEW,,,,,,,,
,,,,,,,,,,,,,,,,TestWords/MO_PU_DAY.wav,,5e80df6ef5008e7bff2ec9b3,2021-07-19_17h37.56.791,Agingstudy,2020.2.10,Win32,60,,,,,F,,,,,,,,,,,,,,,2,1,1.1002,0,95,95,95,1,2,NEW,SIMILAR,,,,,,,,
,,,,,,,,,,,,,,,,TestWords/LA_ZAY_CHAI.wav,,5e80df6ef5008e7bff2ec9b3,2021-07-19_17h37.56.791,Agingstudy,2020.2.10,Win32,60,,,,,F,,,,,,,,,,,,,,,2,1,1.0532,0,96,96,96,1,2,NEW,NEW,,,,,,,,
,,,,,,,,,,,,,,,,TestWords/GA_MU_ZI.wav,,5e80df6ef5008e7bff2ec9b3,2021-07-19_17h37.56.791,Agingstudy,2020.2.10,Win32,60,,,,,F,,,,,,,,,,,,,,,1,1,0.118,0,97,97,97,1,1,OLD,OLD,,,,,,,,
,,,,,,,,,,,,,,,,TestWords/ZO_FU_RAI.wav,,5e80df6ef5008e7bff2ec9b3,2021-07-19_17h37.56.791,Agingstudy,2020.2.10,Win32,60,,,,,F,,,,,,,,,,,,,,,2,1,0.4324,0,98,98,98,1,2,NEW,SIMILAR,,,,,,,,
,,,,,,,,,,,,,,,,TestWords/WAI_RO_JU.wav,,5e80df6ef5008e7bff2ec9b3,2021-07-19_17h37.56.791,Agingstudy,2020.2.10,Win32,60,,,,,F,,,,,,,,,,,,,,,2,1,0.3382,0,99,99,99,1,2,NEW,NEW,,,,,,,,
,,,,,,,,,,,,,,,,,,5e80df6ef5008e7bff2ec9b3,2021-07-19_17h37.56.791,Agingstudy,2020.2.10,Win32,60,,,,,,,,,,,,,,,,,,,,,,,,,,,,,,,0,0,0,0,1,,,
,,,,,,,,,,,,,,,,,,5e80df6ef5008e7bff2ec9b3,2021-07-19_17h37.56.791,Agingstudy,2020.2.10,Win32,60,,,,,,,,,,,,,,,,,,,,,,,,,,,,,,,,,,,,return,17.7493,"Everything was great, thanks"
