Welcome0Continue.keys,Welcome0Continue.rt,SoundCheckBegin.keys,SoundCheckBegin.rt,SoundCheckEndKey.keys,SoundCheckEndKey.rt,HeadphoneContinueKey.keys,HeadphoneContinueKey.rt,CheckResp.keys,CheckResp.corr,CheckResp.rt,HeadphoneLoop.thisRepN,HeadphoneLoop.thisTrialN,HeadphoneLoop.thisN,HeadphoneLoop.thisIndex,HeadphoneLoop.ran,File,Correct,participant,date,expName,psychopyVersion,OS,frameRate,ContinueKey8.keys,ContinueKey8.rt,MSTWelcomeContKey.keys,MSTWelcomeContKey.rt,Condition,MSTTrainIntroKey.keys,MSTTrainIntroKey.rt,MSTTrainKeys.keys,MSTTrainKeys.corr,MSTTrainKeys.rt,MSTTrainLoop.thisRepN,MSTTrainLoop.thisTrialN,MSTTrainLoop.thisN,MSTTrainLoop.thisIndex,MSTTrainLoop.ran,SoundFile,Type,MSTTestBeginKey.keys,MSTTestBeginKey.rt,MST_resp.keys,MST_resp.corr,MST_resp.rt,MSTPlayLoop.thisRepN,MSTPlayLoop.thisTrialN,MSTPlayLoop.thisN,MSTPlayLoop.thisIndex,MSTPlayLoop.ran,WordCorrect,Correct_type,WordType,MSTLoop.thisRepN,MSTLoop.thisTrialN,MSTLoop.thisN,MSTLoop.thisIndex,MSTLoop.ran,EndAllKey.keys,EndAllKey.rt,FeedbackResp.text
space,4.9523,space,3.3975,space,2.4788,space,9.6283,1,0,8.9963,0,0,0,3,1,Headphone/t2_2.wav,2,5e9ff7eb78eeb11a4ed9e114,2021-08-01_22h19.23.232,Agingstudy,2020.2.10,Win32,60,,,,,,,,,,,,,,,,,,,,,,,,,,,,,,,,,,,,,,
,,,,,,,,1,1,0.6503,0,1,1,0,1,Headphone/t1_1.wav,1,5e9ff7eb78eeb11a4ed9e114,2021-08-01_22h19.23.232,Agingstudy,2020.2.10,Win32,60,,,,,,,,,,,,,,,,,,,,,,,,,,,,,,,,,,,,,,
,,,,,,,,1,1,0.1014,0,2,2,1,1,Headphone/t1_2.wav,1,5e9ff7eb78eeb11a4ed9e114,2021-08-01_22h19.23.232,Agingstudy,2020.2.10,Win32,60,,,,,,,,,,,,,,,,,,,,,,,,,,,,,,,,,,,,,,
,,,,,,,,3,1,0.2357,0,3,3,4,1,Headphone/t3_1.wav,3,5e9ff7eb78eeb11a4ed9e114,2021-08-01_22h19.23.232,Agingstudy,2020.2.10,Win32,60,,,,,,,,,,,,,,,,,,,,,,,,,,,,,,,,,,,,,,
,,,,,,,,2,1,2.8394,0,4,4,2,1,Headphone/t2_1.wav,2,5e9ff7eb78eeb11a4ed9e114,2021-08-01_22h19.23.232,Agingstudy,2020.2.10,Win32,60,,,,,,,,,,,,,,,,,,,,,,,,,,,,,,,,,,,,,,
,,,,,,,,3,1,0.5422,0,5,5,5,1,Headphone/t3_2.wav,3,5e9ff7eb78eeb11a4ed9e114,2021-08-01_22h19.23.232,Agingstudy,2020.2.10,Win32,60,,,,,,,,,,,,,,,,,,,,,,,,,,,,,,,,,,,,,,
,,,,,,,,,,,,,,,,,2,5e9ff7eb78eeb11a4ed9e114,2021-08-01_22h19.23.232,Agingstudy,2020.2.10,Win32,60,space,14.5102,space,3.4709,1,space,1.6698,2,1,9.4542,0,0,0,0,1,Training/FO_YI_LAY.wav,NEW,,,,,,,,,,,,,,,,,,,,,
,,,,,,,,,,,,,,,,,1,5e9ff7eb78eeb11a4ed9e114,2021-08-01_22h19.23.232,Agingstudy,2020.2.10,Win32,60,,,,,,,,1,1,1.7895,0,1,1,1,1,Training/FO_YI_LAY.wav,OLD,,,,,,,,,,,,,,,,,,,,,
,,,,,,,,,,,,,,,,,2,5e9ff7eb78eeb11a4ed9e114,2021-08-01_22h19.23.232,Agingstudy,2020.2.10,Win32,60,,,,,,,,2,1,2.528,0,2,2,2,1,Training/YO_BU_JAY.wav,NEW,,,,,,,,,,,,,,,,,,,,,
,,,,,,,,,,,,,,,,,2,5e9ff7eb78eeb11a4ed9e114,2021-08-01_22h19.23.232,Agingstudy,2020.2.10,Win32,60,,,,,,,,2,1,1.0131,0,3,3,3,1,Training/JAY_YO_BU.wav,SIMILAR,,,,,,,,,,,,,,,,,,,,,
,,,,,,,,,,,,,,,,,1,5e9ff7eb78eeb11a4ed9e114,2021-08-01_22h19.23.232,Agingstudy,2020.2.10,Win32,60,,,,,,,,1,1,1.0153,0,4,4,4,1,Training/FO_YI_LAY.wav,OLD,,,,,,,,,,,,,,,,,,,,,
,,,,,,,,,,,,,,,,TestWords/LU_HAI_BO.wav,,5e9ff7eb78eeb11a4ed9e114,2021-08-01_22h19.23.232,Agingstudy,2020.2.10,Win32,60,,,,,B,,,,,,,,,,,,,space,4.1132,2,1,1.6323,0,0,0,0,1,2,NEW,NEW,,,,,,,,
,,,,,,,,,,,,,,,,TestWords/CHU_LA_PAY.wav,,5e9ff7eb78eeb11a4ed9e114,2021-08-01_22h19.23.232,Agingstudy,2020.2.10,Win32,60,,,,,B,,,,,,,,,,,,,,,2,1,0.7167,0,1,1,1,1,2,NEW,NEW,,,,,,,,
,,,,,,,,,,,,,,,,TestWords/RAY_PA_TI.wav,,5e9ff7eb78eeb11a4ed9e114,2021-08-01_22h19.23.232,Agingstudy,2020.2.10,Win32,60,,,,,B,,,,,,,,,,,,,,,2,1,0.4879,0,2,2,2,1,2,NEW,NEW,,,,,,,,
,,,,,,,,,,,,,,,,TestWords/DA_CHU_VAI.wav,,5e9ff7eb78eeb11a4ed9e114,2021-08-01_22h19.23.232,Agingstudy,2020.2.10,Win32,60,,,,,B,,,,,,,,,,,,,,,2,1,0.4664,0,3,3,3,1,2,NEW,NEW,,,,,,,,
,,,,,,,,,,,,,,,,TestWords/DAY_PU_MO.wav,,5e9ff7eb78eeb11a4ed9e114,2021-08-01_22h19.23.232,Agingstudy,2020.2.10,Win32,60,,,,,B,,,,,,,,,,,,,,,2,1,0.2362,0,4,4,4,1,2,NEW,NEW,,,,,,,,
,,,,,,,,,,,,,,,,TestWords/DAI_RU_CHI.wav,,5e9ff7eb78eeb11a4ed9e114,2021-08-01_22h19.23.232,Agingstudy,2020.2.10,Win32,60,,,,,B,,,,,,,,,,,,,,,2,1,0.6366,0,5,5,5,1,2,NEW,NEW,,,,,,,,
,,,,,,,,,,,,,,,,TestWords/RAI_ZO_FU.wav,,5e9ff7eb78eeb11a4ed9e114,2021-08-01_22h19.23.232,Agingstudy,2020.2.10,Win32,60,,,,,B,,,,,,,,,,,,,,,2,1,0.5712,0,6,6,6,1,2,NEW,NEW,,,,,,,,
,,,,,,,,,,,,,,,,TestWords/HO_NAY_VA.wav,,5e9ff7eb78eeb11a4ed9e114,2021-08-01_22h19.23.232,Agingstudy,2020.2.10,Win32,60,,,,,B,,,,,,,,,,,,,,,2,1,0.3831,0,7,7,7,1,2,NEW,NEW,,,,,,,,
,,,,,,,,,,,,,,,,TestWords/RAY_PA_TI.wav,,5e9ff7eb78eeb11a4ed9e114,2021-08-01_22h19.23.232,Agingstudy,2020.2.10,Win32,60,,,,,B,,,,,,,,,,,,,,,1,1,1.0671,0,8,8,8,1,1,OLD,OLD,,,,,,,,
,,,,,,,,,,,,,,,,TestWords/DAY_MO_PU.wav,,5e9ff7eb78eeb11a4ed9e114,2021-08-01_22h19.23.232,Agingstudy,2020.2.10,Win32,60,,,,,B,,,,,,,,,,,,,,,2,1,0.4019,0,9,9,9,1,2,NEW,SIMILAR,,,,,,,,
,,,,,,,,,,,,,,,,TestWords/TAI_SA_GI.wav,,5e9ff7eb78eeb11a4ed9e114,2021-08-01_22h19.23.232,Agingstudy,2020.2.10,Win32,60,,,,,B,,,,,,,,,,,,,,,2,1,0.2893,0,10,10,10,1,2,NEW,NEW,,,,,,,,
,,,,,,,,,,,,,,,,TestWords/DAI_RU_CHI.wav,,5e9ff7eb78eeb11a4ed9e114,2021-08-01_22h19.23.232,Agingstudy,2020.2.10,Win32,60,,,,,B,,,,,,,,,,,,,,,2,0,0.5479,0,11,11,11,1,1,OLD,OLD,,,,,,,,
,,,,,,,,,,,,,,,,TestWords/GA_MU_ZI.wav,,5e9ff7eb78eeb11a4ed9e114,2021-08-01_22h19.23.232,Agingstudy,2020.2.10,Win32,60,,,,,B,,,,,,,,,,,,,,,2,1,0.4748,0,12,12,12,1,2,NEW,NEW,,,,,,,,
,,,,,,,,,,,,,,,,TestWords/ZO_RAI_FU.wav,,5e9ff7eb78eeb11a4ed9e114,2021-08-01_22h19.23.232,Agingstudy,2020.2.10,Win32,60,,,,,B,,,,,,,,,,,,,,,2,1,0.3008,0,13,13,13,1,2,NEW,SIMILAR,,,,,,,,
,,,,,,,,,,,,,,,,TestWords/RAY_PA_TI.wav,,5e9ff7eb78eeb11a4ed9e114,2021-08-01_22h19.23.232,Agingstudy,2020.2.10,Win32,60,,,,,B,,,,,,,,,,,,,,,1,1,1.1007,0,14,14,14,1,1,OLD,OLD,,,,,,,,
,,,,,,,,,,,,,,,,TestWords/FI_GU_CHA.wav,,5e9ff7eb78eeb11a4ed9e114,2021-08-01_22h19.23.232,Agingstudy,2020.2.10,Win32,60,,,,,B,,,,,,,,,,,,,,,2,1,0.2665,0,15,15,15,1,2,NEW,NEW,,,,,,,,
,,,,,,,,,,,,,,,,TestWords/MO_DAY_PU.wav,,5e9ff7eb78eeb11a4ed9e114,2021-08-01_22h19.23.232,Agingstudy,2020.2.10,Win32,60,,,,,B,,,,,,,,,,,,,,,2,1,1.9893,0,16,16,16,1,2,NEW,SIMILAR,,,,,,,,
,,,,,,,,,,,,,,,,TestWords/GI_SA_TAI.wav,,5e9ff7eb78eeb11a4ed9e114,2021-08-01_22h19.23.232,Agingstudy,2020.2.10,Win32,60,,,,,B,,,,,,,,,,,,,,,2,1,0.25,0,17,17,17,1,2,NEW,SIMILAR,,,,,,,,
,,,,,,,,,,,,,,,,TestWords/FU_RAI_ZO.wav,,5e9ff7eb78eeb11a4ed9e114,2021-08-01_22h19.23.232,Agingstudy,2020.2.10,Win32,60,,,,,B,,,,,,,,,,,,,,,2,1,0.5352,0,18,18,18,1,2,NEW,SIMILAR,,,,,,,,
,,,,,,,,,,,,,,,,TestWords/DAI_RU_CHI.wav,,5e9ff7eb78eeb11a4ed9e114,2021-08-01_22h19.23.232,Agingstudy,2020.2.10,Win32,60,,,,,B,,,,,,,,,,,,,,,1,1,1.189,0,19,19,19,1,1,OLD,OLD,,,,,,,,
,,,,,,,,,,,,,,,,TestWords/KO_SU_FAI.wav,,5e9ff7eb78eeb11a4ed9e114,2021-08-01_22h19.23.232,Agingstudy,2020.2.10,Win32,60,,,,,B,,,,,,,,,,,,,,,2,1,0.2837,0,20,20,20,1,2,NEW,NEW,,,,,,,,
,,,,,,,,,,,,,,,,TestWords/GA_MU_ZI.wav,,5e9ff7eb78eeb11a4ed9e114,2021-08-01_22h19.23.232,Agingstudy,2020.2.10,Win32,60,,,,,B,,,,,,,,,,,,,,,2,0,0.6828,0,21,21,21,1,1,OLD,OLD,,,,,,,,
,,,,,,,,,,,,,,,,TestWords/RAY_PA_TI.wav,,5e9ff7eb78eeb11a4ed9e114,2021-08-01_22h19.23.232,Agingstudy,2020.2.10,Win32,60,,,,,B,,,,,,,,,,,,,,,1,1,0.6684,0,22,22,22,1,1,OLD,OLD,,,,,,,,
,,,,,,,,,,,,,,,,TestWords/PU_DAY_MO.wav,,5e9ff7eb78eeb11a4ed9e114,2021-08-01_22h19.23.232,Agingstudy,2020.2.10,Win32,60,,,,,B,,,,,,,,,,,,,,,2,1,0.3174,0,23,23,23,1,2,NEW,SIMILAR,,,,,,,,
,,,,,,,,,,,,,,,,TestWords/GI_TAI_SA.wav,,5e9ff7eb78eeb11a4ed9e114,2021-08-01_22h19.23.232,Agingstudy,2020.2.10,Win32,60,,,,,B,,,,,,,,,,,,,,,2,1,0.6778,0,24,24,24,1,2,NEW,SIMILAR,,,,,,,,
,,,,,,,,,,,,,,,,TestWords/KO_SU_FAI.wav,,5e9ff7eb78eeb11a4ed9e114,2021-08-01_22h19.23.232,Agingstudy,2020.2.10,Win32,60,,,,,B,,,,,,,,,,,,,,,2,0,0.7342,0,25,25,25,1,1,OLD,OLD,,,,,,,,
,,,,,,,,,,,,,,,,TestWords/FU_ZO_RAI.wav,,5e9ff7eb78eeb11a4ed9e114,2021-08-01_22h19.23.232,Agingstudy,2020.2.10,Win32,60,,,,,B,,,,,,,,,,,,,,,2,1,0.732,0,26,26,26,1,2,NEW,SIMILAR,,,,,,,,
,,,,,,,,,,,,,,,,TestWords/DAI_RU_CHI.wav,,5e9ff7eb78eeb11a4ed9e114,2021-08-01_22h19.23.232,Agingstudy,2020.2.10,Win32,60,,,,,B,,,,,,,,,,,,,,,1,1,1.1374,0,27,27,27,1,1,OLD,OLD,,,,,,,,
,,,,,,,,,,,,,,,,TestWords/RAY_PA_TI.wav,,5e9ff7eb78eeb11a4ed9e114,2021-08-01_22h19.23.232,Agingstudy,2020.2.10,Win32,60,,,,,B,,,,,,,,,,,,,,,1,1,0.7746,0,28,28,28,1,1,OLD,OLD,,,,,,,,
,,,,,,,,,,,,,,,,TestWords/GA_MU_ZI.wav,,5e9ff7eb78eeb11a4ed9e114,2021-08-01_22h19.23.232,Agingstudy,2020.2.10,Win32,60,,,,,B,,,,,,,,,,,,,,,2,0,0.519,0,29,29,29,1,1,OLD,OLD,,,,,,,,
,,,,,,,,,,,,,,,,TestWords/WAI_VU_NA.wav,,5e9ff7eb78eeb11a4ed9e114,2021-08-01_22h19.23.232,Agingstudy,2020.2.10,Win32,60,,,,,B,,,,,,,,,,,,,,,2,1,0.753,0,30,30,30,1,2,NEW,NEW,,,,,,,,
,,,,,,,,,,,,,,,,TestWords/SA_TAI_GI.wav,,5e9ff7eb78eeb11a4ed9e114,2021-08-01_22h19.23.232,Agingstudy,2020.2.10,Win32,60,,,,,B,,,,,,,,,,,,,,,2,1,0.2708,0,31,31,31,1,2,NEW,SIMILAR,,,,,,,,
,,,,,,,,,,,,,,,,TestWords/PU_MO_DAY.wav,,5e9ff7eb78eeb11a4ed9e114,2021-08-01_22h19.23.232,Agingstudy,2020.2.10,Win32,60,,,,,B,,,,,,,,,,,,,,,2,1,0.1509,0,32,32,32,1,2,NEW,SIMILAR,,,,,,,,
,,,,,,,,,,,,,,,,TestWords/KO_SU_FAI.wav,,5e9ff7eb78eeb11a4ed9e114,2021-08-01_22h19.23.232,Agingstudy,2020.2.10,Win32,60,,,,,B,,,,,,,,,,,,,,,2,0,0.2103,0,33,33,33,1,1,OLD,OLD,,,,,,,,
,,,,,,,,,,,,,,,,TestWords/RAI_FU_ZO.wav,,5e9ff7eb78eeb11a4ed9e114,2021-08-01_22h19.23.232,Agingstudy,2020.2.10,Win32,60,,,,,B,,,,,,,,,,,,,,,2,1,0.4589,0,34,34,34,1,2,NEW,SIMILAR,,,,,,,,
,,,,,,,,,,,,,,,,TestWords/KAI_LAY_TA.wav,,5e9ff7eb78eeb11a4ed9e114,2021-08-01_22h19.23.232,Agingstudy,2020.2.10,Win32,60,,,,,B,,,,,,,,,,,,,,,2,1,0.2185,0,35,35,35,1,2,NEW,NEW,,,,,,,,
,,,,,,,,,,,,,,,,TestWords/RAY_PA_TI.wav,,5e9ff7eb78eeb11a4ed9e114,2021-08-01_22h19.23.232,Agingstudy,2020.2.10,Win32,60,,,,,B,,,,,,,,,,,,,,,1,1,0.1997,0,36,36,36,1,1,OLD,OLD,,,,,,,,
,,,,,,,,,,,,,,,,TestWords/WAI_NA_VU.wav,,5e9ff7eb78eeb11a4ed9e114,2021-08-01_22h19.23.232,Agingstudy,2020.2.10,Win32,60,,,,,B,,,,,,,,,,,,,,,2,1,0.3169,0,37,37,37,1,2,NEW,SIMILAR,,,,,,,,
,,,,,,,,,,,,,,,,TestWords/GA_MU_ZI.wav,,5e9ff7eb78eeb11a4ed9e114,2021-08-01_22h19.23.232,Agingstudy,2020.2.10,Win32,60,,,,,B,,,,,,,,,,,,,,,2,0,0.3081,0,38,38,38,1,1,OLD,OLD,,,,,,,,
,,,,,,,,,,,,,,,,TestWords/MO_PU_DAY.wav,,5e9ff7eb78eeb11a4ed9e114,2021-08-01_22h19.23.232,Agingstudy,2020.2.10,Win32,60,,,,,B,,,,,,,,,,,,,,,1,0,1.3887,0,39,39,39,1,2,NEW,SIMILAR,,,,,,,,
,,,,,,,,,,,,,,,,TestWords/DAI_RU_CHI.wav,,5e9ff7eb78eeb11a4ed9e114,2021-08-01_22h19.23.232,Agingstudy,2020.2.10,Win32,60,,,,,B,,,,,,,,,,,,,,,1,1,0.9763,0,40,40,40,1,1,OLD,OLD,,,,,,,,
,,,,,,,,,,,,,,,,TestWords/SA_GI_TAI.wav,,5e9ff7eb78eeb11a4ed9e114,2021-08-01_22h19.23.232,Agingstudy,2020.2.10,Win32,60,,,,,B,,,,,,,,,,,,,,,2,1,0.1677,0,41,41,41,1,2,NEW,SIMILAR,,,,,,,,
,,,,,,,,,,,,,,,,TestWords/KO_SU_FAI.wav,,5e9ff7eb78eeb11a4ed9e114,2021-08-01_22h19.23.232,Agingstudy,2020.2.10,Win32,60,,,,,B,,,,,,,,,,,,,,,2,0,0.1349,0,42,42,42,1,1,OLD,OLD,,,,,,,,
,,,,,,,,,,,,,,,,TestWords/ZO_FU_RAI.wav,,5e9ff7eb78eeb11a4ed9e114,2021-08-01_22h19.23.232,Agingstudy,2020.2.10,Win32,60,,,,,B,,,,,,,,,,,,,,,2,1,0.2566,0,43,43,43,1,2,NEW,SIMILAR,,,,,,,,
,,,,,,,,,,,,,,,,TestWords/KAI_LAY_TA.wav,,5e9ff7eb78eeb11a4ed9e114,2021-08-01_22h19.23.232,Agingstudy,2020.2.10,Win32,60,,,,,B,,,,,,,,,,,,,,,2,0,0.4361,0,44,44,44,1,1,OLD,OLD,,,,,,,,
,,,,,,,,,,,,,,,,TestWords/RAY_PA_TI.wav,,5e9ff7eb78eeb11a4ed9e114,2021-08-01_22h19.23.232,Agingstudy,2020.2.10,Win32,60,,,,,B,,,,,,,,,,,,,,,1,1,0.4184,0,45,45,45,1,1,OLD,OLD,,,,,,,,
,,,,,,,,,,,,,,,,TestWords/DAI_RU_CHI.wav,,5e9ff7eb78eeb11a4ed9e114,2021-08-01_22h19.23.232,Agingstudy,2020.2.10,Win32,60,,,,,B,,,,,,,,,,,,,,,1,1,0.9191,0,46,46,46,1,1,OLD,OLD,,,,,,,,
,,,,,,,,,,,,,,,,TestWords/VU_NA_WAI.wav,,5e9ff7eb78eeb11a4ed9e114,2021-08-01_22h19.23.232,Agingstudy,2020.2.10,Win32,60,,,,,B,,,,,,,,,,,,,,,2,1,0.3607,0,47,47,47,1,2,NEW,SIMILAR,,,,,,,,
,,,,,,,,,,,,,,,,TestWords/TAI_GI_SA.wav,,5e9ff7eb78eeb11a4ed9e114,2021-08-01_22h19.23.232,Agingstudy,2020.2.10,Win32,60,,,,,B,,,,,,,,,,,,,,,2,1,1.1516,0,48,48,48,1,2,NEW,SIMILAR,,,,,,,,
,,,,,,,,,,,,,,,,TestWords/GA_MU_ZI.wav,,5e9ff7eb78eeb11a4ed9e114,2021-08-01_22h19.23.232,Agingstudy,2020.2.10,Win32,60,,,,,B,,,,,,,,,,,,,,,1,1,0.5424,0,49,49,49,1,1,OLD,OLD,,,,,,,,
,,,,,,,,,,,,,,,,TestWords/KO_SU_FAI.wav,,5e9ff7eb78eeb11a4ed9e114,2021-08-01_22h19.23.232,Agingstudy,2020.2.10,Win32,60,,,,,B,,,,,,,,,,,,,,,2,0,0.6821,0,50,50,50,1,1,OLD,OLD,,,,,,,,
,,,,,,,,,,,,,,,,TestWords/KAI_LAY_TA.wav,,5e9ff7eb78eeb11a4ed9e114,2021-08-01_22h19.23.232,Agingstudy,2020.2.10,Win32,60,,,,,B,,,,,,,,,,,,,,,2,0,0.4227,0,51,51,51,1,1,OLD,OLD,,,,,,,,
,,,,,,,,,,,,,,,,TestWords/HA_SI_JAI.wav,,5e9ff7eb78eeb11a4ed9e114,2021-08-01_22h19.23.232,Agingstudy,2020.2.10,Win32,60,,,,,B,,,,,,,,,,,,,,,2,1,0.527,0,52,52,52,1,2,NEW,NEW,,,,,,,,
,,,,,,,,,,,,,,,,TestWords/RAY_PA_TI.wav,,5e9ff7eb78eeb11a4ed9e114,2021-08-01_22h19.23.232,Agingstudy,2020.2.10,Win32,60,,,,,B,,,,,,,,,,,,,,,1,1,0.6682,0,53,53,53,1,1,OLD,OLD,,,,,,,,
,,,,,,,,,,,,,,,,TestWords/VU_WAI_NA.wav,,5e9ff7eb78eeb11a4ed9e114,2021-08-01_22h19.23.232,Agingstudy,2020.2.10,Win32,60,,,,,B,,,,,,,,,,,,,,,2,1,0.1912,0,54,54,54,1,2,NEW,SIMILAR,,,,,,,,
,,,,,,,,,,,,,,,,TestWords/DAI_RU_CHI.wav,,5e9ff7eb78eeb11a4ed9e114,2021-08-01_22h19.23.232,Agingstudy,2020.2.10,Win32,60,,,,,B,,,,,,,,,,,,,,,1,1,0.5705,0,55,55,55,1,1,OLD,OLD,,,,,,,,
,,,,,,,,,,,,,,,,TestWords/GA_MU_ZI.wav,,5e9ff7eb78eeb11a4ed9e114,2021-08-01_22h19.23.232,Agingstudy,2020.2.10,Win32,60,,,,,B,,,,,,,,,,,,,,,1,1,0.4585,0,56,56,56,1,1,OLD,OLD,,,,,,,,
,,,,,,,,,,,,,,,,TestWords/KAI_LAY_TA.wav,,5e9ff7eb78eeb11a4ed9e114,2021-08-01_22h19.23.232,Agingstudy,2020.2.10,Win32,60,,,,,B,,,,,,,,,,,,,,,2,0,0.8283,0,57,57,57,1,1,OLD,OLD,,,,,,,,
,,,,,,,,,,,,,,,,TestWords/NU_CHAY_SO.wav,,5e9ff7eb78eeb11a4ed9e114,2021-08-01_22h19.23.232,Agingstudy,2020.2.10,Win32,60,,,,,B,,,,,,,,,,,,,,,2,1,0.3071,0,58,58,58,1,2,NEW,NEW,,,,,,,,
,,,,,,,,,,,,,,,,TestWords/KO_SU_FAI.wav,,5e9ff7eb78eeb11a4ed9e114,2021-08-01_22h19.23.232,Agingstudy,2020.2.10,Win32,60,,,,,B,,,,,,,,,,,,,,,2,0,0.4718,0,59,59,59,1,1,OLD,OLD,,,,,,,,
,,,,,,,,,,,,,,,,TestWords/RAY_PA_TI.wav,,5e9ff7eb78eeb11a4ed9e114,2021-08-01_22h19.23.232,Agingstudy,2020.2.10,Win32,60,,,,,B,,,,,,,,,,,,,,,1,1,0.4688,0,60,60,60,1,1,OLD,OLD,,,,,,,,
,,,,,,,,,,,,,,,,TestWords/BA_KAY_LI.wav,,5e9ff7eb78eeb11a4ed9e114,2021-08-01_22h19.23.232,Agingstudy,2020.2.10,Win32,60,,,,,B,,,,,,,,,,,,,,,2,1,0.1841,0,61,61,61,1,2,NEW,NEW,,,,,,,,
,,,,,,,,,,,,,,,,TestWords/KAI_LAY_TA.wav,,5e9ff7eb78eeb11a4ed9e114,2021-08-01_22h19.23.232,Agingstudy,2020.2.10,Win32,60,,,,,B,,,,,,,,,,,,,,,1,1,1.0509,0,62,62,62,1,1,OLD,OLD,,,,,,,,
,,,,,,,,,,,,,,,,TestWords/NA_VU_WAI.wav,,5e9ff7eb78eeb11a4ed9e114,2021-08-01_22h19.23.232,Agingstudy,2020.2.10,Win32,60,,,,,B,,,,,,,,,,,,,,,2,1,0.2251,0,63,63,63,1,2,NEW,SIMILAR,,,,,,,,
,,,,,,,,,,,,,,,,TestWords/GA_MU_ZI.wav,,5e9ff7eb78eeb11a4ed9e114,2021-08-01_22h19.23.232,Agingstudy,2020.2.10,Win32,60,,,,,B,,,,,,,,,,,,,,,2,0,0.4188,0,64,64,64,1,1,OLD,OLD,,,,,,,,
,,,,,,,,,,,,,,,,TestWords/KO_SU_FAI.wav,,5e9ff7eb78eeb11a4ed9e114,2021-08-01_22h19.23.232,Agingstudy,2020.2.10,Win32,60,,,,,B,,,,,,,,,,,,,,,1,1,0.5027,0,65,65,65,1,1,OLD,OLD,,,,,,,,
,,,,,,,,,,,,,,,,TestWords/DAI_RU_CHI.wav,,5e9ff7eb78eeb11a4ed9e114,2021-08-01_22h19.23.232,Agingstudy,2020.2.10,Win32,60,,,,,B,,,,,,,,,,,,,,,1,1,0.391,0,66,66,66,1,1,OLD,OLD,,,,,,,,
,,,,,,,,,,,,,,,,TestWords/GU_CHAI_PI.wav,,5e9ff7eb78eeb11a4ed9e114,2021-08-01_22h19.23.232,Agingstudy,2020.2.10,Win32,60,,,,,B,,,,,,,,,,,,,,,2,1,0.1847,0,67,67,67,1,2,NEW,NEW,,,,,,,,
,,,,,,,,,,,,,,,,TestWords/RAY_PA_TI.wav,,5e9ff7eb78eeb11a4ed9e114,2021-08-01_22h19.23.232,Agingstudy,2020.2.10,Win32,60,,,,,B,,,,,,,,,,,,,,,1,1,0.5196,0,68,68,68,1,1,OLD,OLD,,,,,,,,
,,,,,,,,,,,,,,,,TestWords/KAY_LI_BA.wav,,5e9ff7eb78eeb11a4ed9e114,2021-08-01_22h19.23.232,Agingstudy,2020.2.10,Win32,60,,,,,B,,,,,,,,,,,,,,,2,1,0.1881,0,69,69,69,1,2,NEW,SIMILAR,,,,,,,,
,,,,,,,,,,,,,,,,TestWords/KAI_LAY_TA.wav,,5e9ff7eb78eeb11a4ed9e114,2021-08-01_22h19.23.232,Agingstudy,2020.2.10,Win32,60,,,,,B,,,,,,,,,,,,,,,2,0,0.3756,0,70,70,70,1,1,OLD,OLD,,,,,,,,
,,,,,,,,,,,,,,,,TestWords/KO_SU_FAI.wav,,5e9ff7eb78eeb11a4ed9e114,2021-08-01_22h19.23.232,Agingstudy,2020.2.10,Win32,60,,,,,B,,,,,,,,,,,,,,,1,1,0.7825,0,71,71,71,1,1,OLD,OLD,,,,,,,,
,,,,,,,,,,,,,,,,TestWords/DAI_RU_CHI.wav,,5e9ff7eb78eeb11a4ed9e114,2021-08-01_22h19.23.232,Agingstudy,2020.2.10,Win32,60,,,,,B,,,,,,,,,,,,,,,1,1,0.4523,0,72,72,72,1,1,OLD,OLD,,,,,,,,
,,,,,,,,,,,,,,,,TestWords/NA_WAI_VU.wav,,5e9ff7eb78eeb11a4ed9e114,2021-08-01_22h19.23.232,Agingstudy,2020.2.10,Win32,60,,,,,B,,,,,,,,,,,,,,,2,1,0.1028,0,73,73,73,1,2,NEW,SIMILAR,,,,,,,,
,,,,,,,,,,,,,,,,TestWords/GA_MU_ZI.wav,,5e9ff7eb78eeb11a4ed9e114,2021-08-01_22h19.23.232,Agingstudy,2020.2.10,Win32,60,,,,,B,,,,,,,,,,,,,,,2,0,0.1433,0,74,74,74,1,1,OLD,OLD,,,,,,,,
,,,,,,,,,,,,,,,,TestWords/KAY_BA_LI.wav,,5e9ff7eb78eeb11a4ed9e114,2021-08-01_22h19.23.232,Agingstudy,2020.2.10,Win32,60,,,,,B,,,,,,,,,,,,,,,2,1,0.4924,0,75,75,75,1,2,NEW,SIMILAR,,,,,,,,
,,,,,,,,,,,,,,,,TestWords/WAI_RO_JU.wav,,5e9ff7eb78eeb11a4ed9e114,2021-08-01_22h19.23.232,Agingstudy,2020.2.10,Win32,60,,,,,B,,,,,,,,,,,,,,,2,1,0.3405,0,76,76,76,1,2,NEW,NEW,,,,,,,,
,,,,,,,,,,,,,,,,TestWords/RAY_PA_TI.wav,,5e9ff7eb78eeb11a4ed9e114,2021-08-01_22h19.23.232,Agingstudy,2020.2.10,Win32,60,,,,,B,,,,,,,,,,,,,,,1,1,0.1672,0,77,77,77,1,1,OLD,OLD,,,,,,,,
,,,,,,,,,,,,,,,,TestWords/KAI_LAY_TA.wav,,5e9ff7eb78eeb11a4ed9e114,2021-08-01_22h19.23.232,Agingstudy,2020.2.10,Win32,60,,,,,B,,,,,,,,,,,,,,,2,0,0.7672,0,78,78,78,1,1,OLD,OLD,,,,,,,,
,,,,,,,,,,,,,,,,TestWords/HI_NAY_VA.wav,,5e9ff7eb78eeb11a4ed9e114,2021-08-01_22h19.23.232,Agingstudy,2020.2.10,Win32,60,,,,,B,,,,,,,,,,,,,,,2,1,0.2062,0,79,79,79,1,2,NEW,NEW,,,,,,,,
,,,,,,,,,,,,,,,,TestWords/KO_SU_FAI.wav,,5e9ff7eb78eeb11a4ed9e114,2021-08-01_22h19.23.232,Agingstudy,2020.2.10,Win32,60,,,,,B,,,,,,,,,,,,,,,2,0,0.0851,0,80,80,80,1,1,OLD,OLD,,,,,,,,
,,,,,,,,,,,,,,,,TestWords/GA_MU_ZI.wav,,5e9ff7eb78eeb11a4ed9e114,2021-08-01_22h19.23.232,Agingstudy,2020.2.10,Win32,60,,,,,B,,,,,,,,,,,,,,,1,1,0.8385,0,81,81,81,1,1,OLD,OLD,,,,,,,,
,,,,,,,,,,,,,,,,TestWords/KAI_LAY_TA.wav,,5e9ff7eb78eeb11a4ed9e114,2021-08-01_22h19.23.232,Agingstudy,2020.2.10,Win32,60,,,,,B,,,,,,,,,,,,,,,1,1,0.6671,0,82,82,82,1,1,OLD,OLD,,,,,,,,
,,,,,,,,,,,,,,,,TestWords/LI_BA_KAY.wav,,5e9ff7eb78eeb11a4ed9e114,2021-08-01_22h19.23.232,Agingstudy,2020.2.10,Win32,60,,,,,B,,,,,,,,,,,,,,,2,1,0.7003,0,83,83,83,1,2,NEW,SIMILAR,,,,,,,,
,,,,,,,,,,,,,,,,TestWords/DAI_RU_CHI.wav,,5e9ff7eb78eeb11a4ed9e114,2021-08-01_22h19.23.232,Agingstudy,2020.2.10,Win32,60,,,,,B,,,,,,,,,,,,,,,1,1,0.5718,0,84,84,84,1,1,OLD,OLD,,,,,,,,
,,,,,,,,,,,,,,,,TestWords/KO_SU_FAI.wav,,5e9ff7eb78eeb11a4ed9e114,2021-08-01_22h19.23.232,Agingstudy,2020.2.10,Win32,60,,,,,B,,,,,,,,,,,,,,,2,0,0.6344,0,85,85,85,1,1,OLD,OLD,,,,,,,,
,,,,,,,,,,,,,,,,TestWords/NO_WA_BAY.wav,,5e9ff7eb78eeb11a4ed9e114,2021-08-01_22h19.23.232,Agingstudy,2020.2.10,Win32,60,,,,,B,,,,,,,,,,,,,,,2,1,0.6579,0,86,86,86,1,2,NEW,NEW,,,,,,,,
,,,,,,,,,,,,,,,,TestWords/KAI_LAY_TA.wav,,5e9ff7eb78eeb11a4ed9e114,2021-08-01_22h19.23.232,Agingstudy,2020.2.10,Win32,60,,,,,B,,,,,,,,,,,,,,,2,0,1.3841,0,87,87,87,1,1,OLD,OLD,,,,,,,,
,,,,,,,,,,,,,,,,TestWords/GA_MU_ZI.wav,,5e9ff7eb78eeb11a4ed9e114,2021-08-01_22h19.23.232,Agingstudy,2020.2.10,Win32,60,,,,,B,,,,,,,,,,,,,,,1,1,0.4847,0,88,88,88,1,1,OLD,OLD,,,,,,,,
,,,,,,,,,,,,,,,,TestWords/DAI_RU_CHI.wav,,5e9ff7eb78eeb11a4ed9e114,2021-08-01_22h19.23.232,Agingstudy,2020.2.10,Win32,60,,,,,B,,,,,,,,,,,,,,,1,1,0.3071,0,89,89,89,1,1,OLD,OLD,,,,,,,,
,,,,,,,,,,,,,,,,TestWords/LA_ZAY_CHAI.wav,,5e9ff7eb78eeb11a4ed9e114,2021-08-01_22h19.23.232,Agingstudy,2020.2.10,Win32,60,,,,,B,,,,,,,,,,,,,,,2,1,0.2872,0,90,90,90,1,2,NEW,NEW,,,,,,,,
,,,,,,,,,,,,,,,,TestWords/BA_LI_KAY.wav,,5e9ff7eb78eeb11a4ed9e114,2021-08-01_22h19.23.232,Agingstudy,2020.2.10,Win32,60,,,,,B,,,,,,,,,,,,,,,2,1,0.3224,0,91,91,91,1,2,NEW,SIMILAR,,,,,,,,
,,,,,,,,,,,,,,,,TestWords/PAI_LU_WA.wav,,5e9ff7eb78eeb11a4ed9e114,2021-08-01_22h19.23.232,Agingstudy,2020.2.10,Win32,60,,,,,B,,,,,,,,,,,,,,,2,1,0.6404,0,92,92,92,1,2,NEW,NEW,,,,,,,,
,,,,,,,,,,,,,,,,TestWords/KO_SU_FAI.wav,,5e9ff7eb78eeb11a4ed9e114,2021-08-01_22h19.23.232,Agingstudy,2020.2.10,Win32,60,,,,,B,,,,,,,,,,,,,,,2,0,0.384,0,93,93,93,1,1,OLD,OLD,,,,,,,,
,,,,,,,,,,,,,,,,TestWords/KAI_LAY_TA.wav,,5e9ff7eb78eeb11a4ed9e114,2021-08-01_22h19.23.232,Agingstudy,2020.2.10,Win32,60,,,,,B,,,,,,,,,,,,,,,2,0,0.283,0,94,94,94,1,1,OLD,OLD,,,,,,,,
,,,,,,,,,,,,,,,,TestWords/VAI_HO_LA.wav,,5e9ff7eb78eeb11a4ed9e114,2021-08-01_22h19.23.232,Agingstudy,2020.2.10,Win32,60,,,,,B,,,,,,,,,,,,,,,2,1,0.501,0,95,95,95,1,2,NEW,NEW,,,,,,,,
,,,,,,,,,,,,,,,,TestWords/GA_MU_ZI.wav,,5e9ff7eb78eeb11a4ed9e114,2021-08-01_22h19.23.232,Agingstudy,2020.2.10,Win32,60,,,,,B,,,,,,,,,,,,,,,1,1,0.5348,0,96,96,96,1,1,OLD,OLD,,,,,,,,
,,,,,,,,,,,,,,,,TestWords/LI_KAY_BA.wav,,5e9ff7eb78eeb11a4ed9e114,2021-08-01_22h19.23.232,Agingstudy,2020.2.10,Win32,60,,,,,B,,,,,,,,,,,,,,,2,1,0.2102,0,97,97,97,1,2,NEW,SIMILAR,,,,,,,,
,,,,,,,,,,,,,,,,TestWords/KAI_LAY_TA.wav,,5e9ff7eb78eeb11a4ed9e114,2021-08-01_22h19.23.232,Agingstudy,2020.2.10,Win32,60,,,,,B,,,,,,,,,,,,,,,1,1,0.5603,0,98,98,98,1,1,OLD,OLD,,,,,,,,
,,,,,,,,,,,,,,,,TestWords/SI_VAI_CHU.wav,,5e9ff7eb78eeb11a4ed9e114,2021-08-01_22h19.23.232,Agingstudy,2020.2.10,Win32,60,,,,,B,,,,,,,,,,,,,,,2,1,1.689,0,99,99,99,1,2,NEW,NEW,,,,,,,,
,,,,,,,,,,,,,,,,,,5e9ff7eb78eeb11a4ed9e114,2021-08-01_22h19.23.232,Agingstudy,2020.2.10,Win32,60,,,,,,,,,,,,,,,,,,,,,,,,,,,,,,,0,0,0,0,1,,,
,,,,,,,,,,,,,,,,,,5e9ff7eb78eeb11a4ed9e114,2021-08-01_22h19.23.232,Agingstudy,2020.2.10,Win32,60,,,,,,,,,,,,,,,,,,,,,,,,,,,,,,,,,,,,return,10.6999,
