Welcome0Continue.keys,Welcome0Continue.rt,SoundCheckBegin.keys,SoundCheckBegin.rt,SoundCheckEndKey.keys,SoundCheckEndKey.rt,HeadphoneContinueKey.keys,HeadphoneContinueKey.rt,CheckResp.keys,CheckResp.corr,CheckResp.rt,HeadphoneLoop.thisRepN,HeadphoneLoop.thisTrialN,HeadphoneLoop.thisN,HeadphoneLoop.thisIndex,HeadphoneLoop.ran,File,Correct,participant,date,expName,psychopyVersion,OS,frameRate,ContinueKey8.keys,ContinueKey8.rt,MSTWelcomeContKey.keys,MSTWelcomeContKey.rt,Condition,MSTTrainIntroKey.keys,MSTTrainIntroKey.rt,MSTTrainKeys.keys,MSTTrainKeys.corr,MSTTrainKeys.rt,MSTTrainLoop.thisRepN,MSTTrainLoop.thisTrialN,MSTTrainLoop.thisN,MSTTrainLoop.thisIndex,MSTTrainLoop.ran,SoundFile,Type,MSTTestBeginKey.keys,MSTTestBeginKey.rt,MST_resp.keys,MST_resp.corr,MST_resp.rt,MSTPlayLoop.thisRepN,MSTPlayLoop.thisTrialN,MSTPlayLoop.thisN,MSTPlayLoop.thisIndex,MSTPlayLoop.ran,WordCorrect,Correct_type,WordType,MSTLoop.thisRepN,MSTLoop.thisTrialN,MSTLoop.thisN,MSTLoop.thisIndex,MSTLoop.ran,EndAllKey.keys,EndAllKey.rt,FeedbackResp.text
space,59.4934,space,2.1295,space,4.781,space,43.069,1,0,2.9988,0,0,0,4,1,Headphone/t3_1.wav,3,5ea19dcac30e0005e6e6b6e3,2021-08-03_18h54.36.504,Agingstudy,2020.2.10,Win32,60,,,,,,,,,,,,,,,,,,,,,,,,,,,,,,,,,,,,,,
,,,,,,,,2,1,0.933,0,1,1,2,1,Headphone/t2_1.wav,2,5ea19dcac30e0005e6e6b6e3,2021-08-03_18h54.36.504,Agingstudy,2020.2.10,Win32,60,,,,,,,,,,,,,,,,,,,,,,,,,,,,,,,,,,,,,,
,,,,,,,,2,1,0.5849,0,2,2,3,1,Headphone/t2_2.wav,2,5ea19dcac30e0005e6e6b6e3,2021-08-03_18h54.36.504,Agingstudy,2020.2.10,Win32,60,,,,,,,,,,,,,,,,,,,,,,,,,,,,,,,,,,,,,,
,,,,,,,,1,1,0.5001,0,3,3,1,1,Headphone/t1_2.wav,1,5ea19dcac30e0005e6e6b6e3,2021-08-03_18h54.36.504,Agingstudy,2020.2.10,Win32,60,,,,,,,,,,,,,,,,,,,,,,,,,,,,,,,,,,,,,,
,,,,,,,,1,1,0.6167,0,4,4,0,1,Headphone/t1_1.wav,1,5ea19dcac30e0005e6e6b6e3,2021-08-03_18h54.36.504,Agingstudy,2020.2.10,Win32,60,,,,,,,,,,,,,,,,,,,,,,,,,,,,,,,,,,,,,,
,,,,,,,,3,1,0.6838,0,5,5,5,1,Headphone/t3_2.wav,3,5ea19dcac30e0005e6e6b6e3,2021-08-03_18h54.36.504,Agingstudy,2020.2.10,Win32,60,,,,,,,,,,,,,,,,,,,,,,,,,,,,,,,,,,,,,,
,,,,,,,,,,,,,,,,,2,5ea19dcac30e0005e6e6b6e3,2021-08-03_18h54.36.504,Agingstudy,2020.2.10,Win32,60,space,31.4091,space,12.3206,1,space,6.8684,2,1,19.6585,0,0,0,0,1,Training/FO_YI_LAY.wav,NEW,,,,,,,,,,,,,,,,,,,,,
,,,,,,,,,,,,,,,,,1,5ea19dcac30e0005e6e6b6e3,2021-08-03_18h54.36.504,Agingstudy,2020.2.10,Win32,60,,,,,,,,1,1,3.8999,0,1,1,1,1,Training/FO_YI_LAY.wav,OLD,,,,,,,,,,,,,,,,,,,,,
,,,,,,,,,,,,,,,,,2,5ea19dcac30e0005e6e6b6e3,2021-08-03_18h54.36.504,Agingstudy,2020.2.10,Win32,60,,,,,,,,2,1,8.3258,0,2,2,2,1,Training/YO_BU_JAY.wav,NEW,,,,,,,,,,,,,,,,,,,,,
,,,,,,,,,,,,,,,,,2,5ea19dcac30e0005e6e6b6e3,2021-08-03_18h54.36.504,Agingstudy,2020.2.10,Win32,60,,,,,,,,2,1,6.5037,0,3,3,3,1,Training/JAY_YO_BU.wav,SIMILAR,,,,,,,,,,,,,,,,,,,,,
,,,,,,,,,,,,,,,,,1,5ea19dcac30e0005e6e6b6e3,2021-08-03_18h54.36.504,Agingstudy,2020.2.10,Win32,60,,,,,,,,1,1,1.8663,0,4,4,4,1,Training/FO_YI_LAY.wav,OLD,,,,,,,,,,,,,,,,,,,,,
,,,,,,,,,,,,,,,,TestWords/LU_HAI_BO.wav,,5ea19dcac30e0005e6e6b6e3,2021-08-03_18h54.36.504,Agingstudy,2020.2.10,Win32,60,,,,,B,,,,,,,,,,,,,space,8.975,2,1,8.7627,0,0,0,0,1,2,NEW,NEW,,,,,,,,
,,,,,,,,,,,,,,,,TestWords/CHU_LA_PAY.wav,,5ea19dcac30e0005e6e6b6e3,2021-08-03_18h54.36.504,Agingstudy,2020.2.10,Win32,60,,,,,B,,,,,,,,,,,,,,,2,1,1.1835,0,1,1,1,1,2,NEW,NEW,,,,,,,,
,,,,,,,,,,,,,,,,TestWords/RAY_PA_TI.wav,,5ea19dcac30e0005e6e6b6e3,2021-08-03_18h54.36.504,Agingstudy,2020.2.10,Win32,60,,,,,B,,,,,,,,,,,,,,,2,1,1.2756,0,2,2,2,1,2,NEW,NEW,,,,,,,,
,,,,,,,,,,,,,,,,TestWords/DA_CHU_VAI.wav,,5ea19dcac30e0005e6e6b6e3,2021-08-03_18h54.36.504,Agingstudy,2020.2.10,Win32,60,,,,,B,,,,,,,,,,,,,,,2,1,1.6393,0,3,3,3,1,2,NEW,NEW,,,,,,,,
,,,,,,,,,,,,,,,,TestWords/DAY_PU_MO.wav,,5ea19dcac30e0005e6e6b6e3,2021-08-03_18h54.36.504,Agingstudy,2020.2.10,Win32,60,,,,,B,,,,,,,,,,,,,,,2,1,1.0173,0,4,4,4,1,2,NEW,NEW,,,,,,,,
,,,,,,,,,,,,,,,,TestWords/DAI_RU_CHI.wav,,5ea19dcac30e0005e6e6b6e3,2021-08-03_18h54.36.504,Agingstudy,2020.2.10,Win32,60,,,,,B,,,,,,,,,,,,,,,2,1,0.924,0,5,5,5,1,2,NEW,NEW,,,,,,,,
,,,,,,,,,,,,,,,,TestWords/RAI_ZO_FU.wav,,5ea19dcac30e0005e6e6b6e3,2021-08-03_18h54.36.504,Agingstudy,2020.2.10,Win32,60,,,,,B,,,,,,,,,,,,,,,2,1,0.8754,0,6,6,6,1,2,NEW,NEW,,,,,,,,
,,,,,,,,,,,,,,,,TestWords/HO_NAY_VA.wav,,5ea19dcac30e0005e6e6b6e3,2021-08-03_18h54.36.504,Agingstudy,2020.2.10,Win32,60,,,,,B,,,,,,,,,,,,,,,2,1,0.7592,0,7,7,7,1,2,NEW,NEW,,,,,,,,
,,,,,,,,,,,,,,,,TestWords/RAY_PA_TI.wav,,5ea19dcac30e0005e6e6b6e3,2021-08-03_18h54.36.504,Agingstudy,2020.2.10,Win32,60,,,,,B,,,,,,,,,,,,,,,1,1,0.458,0,8,8,8,1,1,OLD,OLD,,,,,,,,
,,,,,,,,,,,,,,,,TestWords/DAY_MO_PU.wav,,5ea19dcac30e0005e6e6b6e3,2021-08-03_18h54.36.504,Agingstudy,2020.2.10,Win32,60,,,,,B,,,,,,,,,,,,,,,1,0,0.7336,0,9,9,9,1,2,NEW,SIMILAR,,,,,,,,
,,,,,,,,,,,,,,,,TestWords/TAI_SA_GI.wav,,5ea19dcac30e0005e6e6b6e3,2021-08-03_18h54.36.504,Agingstudy,2020.2.10,Win32,60,,,,,B,,,,,,,,,,,,,,,2,1,0.5275,0,10,10,10,1,2,NEW,NEW,,,,,,,,
,,,,,,,,,,,,,,,,TestWords/DAI_RU_CHI.wav,,5ea19dcac30e0005e6e6b6e3,2021-08-03_18h54.36.504,Agingstudy,2020.2.10,Win32,60,,,,,B,,,,,,,,,,,,,,,1,1,0.7066,0,11,11,11,1,1,OLD,OLD,,,,,,,,
,,,,,,,,,,,,,,,,TestWords/GA_MU_ZI.wav,,5ea19dcac30e0005e6e6b6e3,2021-08-03_18h54.36.504,Agingstudy,2020.2.10,Win32,60,,,,,B,,,,,,,,,,,,,,,2,1,0.4827,0,12,12,12,1,2,NEW,NEW,,,,,,,,
,,,,,,,,,,,,,,,,TestWords/ZO_RAI_FU.wav,,5ea19dcac30e0005e6e6b6e3,2021-08-03_18h54.36.504,Agingstudy,2020.2.10,Win32,60,,,,,B,,,,,,,,,,,,,,,2,1,0.9694,0,13,13,13,1,2,NEW,SIMILAR,,,,,,,,
,,,,,,,,,,,,,,,,TestWords/RAY_PA_TI.wav,,5ea19dcac30e0005e6e6b6e3,2021-08-03_18h54.36.504,Agingstudy,2020.2.10,Win32,60,,,,,B,,,,,,,,,,,,,,,1,1,0.6839,0,14,14,14,1,1,OLD,OLD,,,,,,,,
,,,,,,,,,,,,,,,,TestWords/FI_GU_CHA.wav,,5ea19dcac30e0005e6e6b6e3,2021-08-03_18h54.36.504,Agingstudy,2020.2.10,Win32,60,,,,,B,,,,,,,,,,,,,,,2,1,0.788,0,15,15,15,1,2,NEW,NEW,,,,,,,,
,,,,,,,,,,,,,,,,TestWords/MO_DAY_PU.wav,,5ea19dcac30e0005e6e6b6e3,2021-08-03_18h54.36.504,Agingstudy,2020.2.10,Win32,60,,,,,B,,,,,,,,,,,,,,,2,1,0.9573,0,16,16,16,1,2,NEW,SIMILAR,,,,,,,,
,,,,,,,,,,,,,,,,TestWords/GI_SA_TAI.wav,,5ea19dcac30e0005e6e6b6e3,2021-08-03_18h54.36.504,Agingstudy,2020.2.10,Win32,60,,,,,B,,,,,,,,,,,,,,,2,1,0.9045,0,17,17,17,1,2,NEW,SIMILAR,,,,,,,,
,,,,,,,,,,,,,,,,TestWords/FU_RAI_ZO.wav,,5ea19dcac30e0005e6e6b6e3,2021-08-03_18h54.36.504,Agingstudy,2020.2.10,Win32,60,,,,,B,,,,,,,,,,,,,,,2,1,1.5662,0,18,18,18,1,2,NEW,SIMILAR,,,,,,,,
,,,,,,,,,,,,,,,,TestWords/DAI_RU_CHI.wav,,5ea19dcac30e0005e6e6b6e3,2021-08-03_18h54.36.504,Agingstudy,2020.2.10,Win32,60,,,,,B,,,,,,,,,,,,,,,1,1,0.7185,0,19,19,19,1,1,OLD,OLD,,,,,,,,
,,,,,,,,,,,,,,,,TestWords/KO_SU_FAI.wav,,5ea19dcac30e0005e6e6b6e3,2021-08-03_18h54.36.504,Agingstudy,2020.2.10,Win32,60,,,,,B,,,,,,,,,,,,,,,2,1,0.7175,0,20,20,20,1,2,NEW,NEW,,,,,,,,
,,,,,,,,,,,,,,,,TestWords/GA_MU_ZI.wav,,5ea19dcac30e0005e6e6b6e3,2021-08-03_18h54.36.504,Agingstudy,2020.2.10,Win32,60,,,,,B,,,,,,,,,,,,,,,2,0,2.4703,0,21,21,21,1,1,OLD,OLD,,,,,,,,
,,,,,,,,,,,,,,,,TestWords/RAY_PA_TI.wav,,5ea19dcac30e0005e6e6b6e3,2021-08-03_18h54.36.504,Agingstudy,2020.2.10,Win32,60,,,,,B,,,,,,,,,,,,,,,1,1,0.8759,0,22,22,22,1,1,OLD,OLD,,,,,,,,
,,,,,,,,,,,,,,,,TestWords/PU_DAY_MO.wav,,5ea19dcac30e0005e6e6b6e3,2021-08-03_18h54.36.504,Agingstudy,2020.2.10,Win32,60,,,,,B,,,,,,,,,,,,,,,2,1,0.6743,0,23,23,23,1,2,NEW,SIMILAR,,,,,,,,
,,,,,,,,,,,,,,,,TestWords/GI_TAI_SA.wav,,5ea19dcac30e0005e6e6b6e3,2021-08-03_18h54.36.504,Agingstudy,2020.2.10,Win32,60,,,,,B,,,,,,,,,,,,,,,2,1,0.8167,0,24,24,24,1,2,NEW,SIMILAR,,,,,,,,
,,,,,,,,,,,,,,,,TestWords/KO_SU_FAI.wav,,5ea19dcac30e0005e6e6b6e3,2021-08-03_18h54.36.504,Agingstudy,2020.2.10,Win32,60,,,,,B,,,,,,,,,,,,,,,1,1,1.1,0,25,25,25,1,1,OLD,OLD,,,,,,,,
,,,,,,,,,,,,,,,,TestWords/FU_ZO_RAI.wav,,5ea19dcac30e0005e6e6b6e3,2021-08-03_18h54.36.504,Agingstudy,2020.2.10,Win32,60,,,,,B,,,,,,,,,,,,,,,2,1,1.1891,0,26,26,26,1,2,NEW,SIMILAR,,,,,,,,
,,,,,,,,,,,,,,,,TestWords/DAI_RU_CHI.wav,,5ea19dcac30e0005e6e6b6e3,2021-08-03_18h54.36.504,Agingstudy,2020.2.10,Win32,60,,,,,B,,,,,,,,,,,,,,,1,1,1.4515,0,27,27,27,1,1,OLD,OLD,,,,,,,,
,,,,,,,,,,,,,,,,TestWords/RAY_PA_TI.wav,,5ea19dcac30e0005e6e6b6e3,2021-08-03_18h54.36.504,Agingstudy,2020.2.10,Win32,60,,,,,B,,,,,,,,,,,,,,,1,1,0.827,0,28,28,28,1,1,OLD,OLD,,,,,,,,
,,,,,,,,,,,,,,,,TestWords/GA_MU_ZI.wav,,5ea19dcac30e0005e6e6b6e3,2021-08-03_18h54.36.504,Agingstudy,2020.2.10,Win32,60,,,,,B,,,,,,,,,,,,,,,1,1,0.8526,0,29,29,29,1,1,OLD,OLD,,,,,,,,
,,,,,,,,,,,,,,,,TestWords/WAI_VU_NA.wav,,5ea19dcac30e0005e6e6b6e3,2021-08-03_18h54.36.504,Agingstudy,2020.2.10,Win32,60,,,,,B,,,,,,,,,,,,,,,2,1,0.451,0,30,30,30,1,2,NEW,NEW,,,,,,,,
,,,,,,,,,,,,,,,,TestWords/SA_TAI_GI.wav,,5ea19dcac30e0005e6e6b6e3,2021-08-03_18h54.36.504,Agingstudy,2020.2.10,Win32,60,,,,,B,,,,,,,,,,,,,,,2,1,0.7749,0,31,31,31,1,2,NEW,SIMILAR,,,,,,,,
,,,,,,,,,,,,,,,,TestWords/PU_MO_DAY.wav,,5ea19dcac30e0005e6e6b6e3,2021-08-03_18h54.36.504,Agingstudy,2020.2.10,Win32,60,,,,,B,,,,,,,,,,,,,,,2,1,0.7875,0,32,32,32,1,2,NEW,SIMILAR,,,,,,,,
,,,,,,,,,,,,,,,,TestWords/KO_SU_FAI.wav,,5ea19dcac30e0005e6e6b6e3,2021-08-03_18h54.36.504,Agingstudy,2020.2.10,Win32,60,,,,,B,,,,,,,,,,,,,,,2,0,0.6082,0,33,33,33,1,1,OLD,OLD,,,,,,,,
,,,,,,,,,,,,,,,,TestWords/RAI_FU_ZO.wav,,5ea19dcac30e0005e6e6b6e3,2021-08-03_18h54.36.504,Agingstudy,2020.2.10,Win32,60,,,,,B,,,,,,,,,,,,,,,1,0,0.9886,0,34,34,34,1,2,NEW,SIMILAR,,,,,,,,
,,,,,,,,,,,,,,,,TestWords/KAI_LAY_TA.wav,,5ea19dcac30e0005e6e6b6e3,2021-08-03_18h54.36.504,Agingstudy,2020.2.10,Win32,60,,,,,B,,,,,,,,,,,,,,,2,1,0.4346,0,35,35,35,1,2,NEW,NEW,,,,,,,,
,,,,,,,,,,,,,,,,TestWords/RAY_PA_TI.wav,,5ea19dcac30e0005e6e6b6e3,2021-08-03_18h54.36.504,Agingstudy,2020.2.10,Win32,60,,,,,B,,,,,,,,,,,,,,,1,1,0.4357,0,36,36,36,1,1,OLD,OLD,,,,,,,,
,,,,,,,,,,,,,,,,TestWords/WAI_NA_VU.wav,,5ea19dcac30e0005e6e6b6e3,2021-08-03_18h54.36.504,Agingstudy,2020.2.10,Win32,60,,,,,B,,,,,,,,,,,,,,,2,1,0.4011,0,37,37,37,1,2,NEW,SIMILAR,,,,,,,,
,,,,,,,,,,,,,,,,TestWords/GA_MU_ZI.wav,,5ea19dcac30e0005e6e6b6e3,2021-08-03_18h54.36.504,Agingstudy,2020.2.10,Win32,60,,,,,B,,,,,,,,,,,,,,,1,1,0.6505,0,38,38,38,1,1,OLD,OLD,,,,,,,,
,,,,,,,,,,,,,,,,TestWords/MO_PU_DAY.wav,,5ea19dcac30e0005e6e6b6e3,2021-08-03_18h54.36.504,Agingstudy,2020.2.10,Win32,60,,,,,B,,,,,,,,,,,,,,,2,1,0.4887,0,39,39,39,1,2,NEW,SIMILAR,,,,,,,,
,,,,,,,,,,,,,,,,TestWords/DAI_RU_CHI.wav,,5ea19dcac30e0005e6e6b6e3,2021-08-03_18h54.36.504,Agingstudy,2020.2.10,Win32,60,,,,,B,,,,,,,,,,,,,,,2,0,1.6906,0,40,40,40,1,1,OLD,OLD,,,,,,,,
,,,,,,,,,,,,,,,,TestWords/SA_GI_TAI.wav,,5ea19dcac30e0005e6e6b6e3,2021-08-03_18h54.36.504,Agingstudy,2020.2.10,Win32,60,,,,,B,,,,,,,,,,,,,,,2,1,1.0319,0,41,41,41,1,2,NEW,SIMILAR,,,,,,,,
,,,,,,,,,,,,,,,,TestWords/KO_SU_FAI.wav,,5ea19dcac30e0005e6e6b6e3,2021-08-03_18h54.36.504,Agingstudy,2020.2.10,Win32,60,,,,,B,,,,,,,,,,,,,,,1,1,1.0094,0,42,42,42,1,1,OLD,OLD,,,,,,,,
,,,,,,,,,,,,,,,,TestWords/ZO_FU_RAI.wav,,5ea19dcac30e0005e6e6b6e3,2021-08-03_18h54.36.504,Agingstudy,2020.2.10,Win32,60,,,,,B,,,,,,,,,,,,,,,2,1,1.5007,0,43,43,43,1,2,NEW,SIMILAR,,,,,,,,
,,,,,,,,,,,,,,,,TestWords/KAI_LAY_TA.wav,,5ea19dcac30e0005e6e6b6e3,2021-08-03_18h54.36.504,Agingstudy,2020.2.10,Win32,60,,,,,B,,,,,,,,,,,,,,,2,0,1.1751,0,44,44,44,1,1,OLD,OLD,,,,,,,,
,,,,,,,,,,,,,,,,TestWords/RAY_PA_TI.wav,,5ea19dcac30e0005e6e6b6e3,2021-08-03_18h54.36.504,Agingstudy,2020.2.10,Win32,60,,,,,B,,,,,,,,,,,,,,,1,1,1.0238,0,45,45,45,1,1,OLD,OLD,,,,,,,,
,,,,,,,,,,,,,,,,TestWords/DAI_RU_CHI.wav,,5ea19dcac30e0005e6e6b6e3,2021-08-03_18h54.36.504,Agingstudy,2020.2.10,Win32,60,,,,,B,,,,,,,,,,,,,,,1,1,0.959,0,46,46,46,1,1,OLD,OLD,,,,,,,,
,,,,,,,,,,,,,,,,TestWords/VU_NA_WAI.wav,,5ea19dcac30e0005e6e6b6e3,2021-08-03_18h54.36.504,Agingstudy,2020.2.10,Win32,60,,,,,B,,,,,,,,,,,,,,,2,1,0.5677,0,47,47,47,1,2,NEW,SIMILAR,,,,,,,,
,,,,,,,,,,,,,,,,TestWords/TAI_GI_SA.wav,,5ea19dcac30e0005e6e6b6e3,2021-08-03_18h54.36.504,Agingstudy,2020.2.10,Win32,60,,,,,B,,,,,,,,,,,,,,,2,1,0.8836,0,48,48,48,1,2,NEW,SIMILAR,,,,,,,,
,,,,,,,,,,,,,,,,TestWords/GA_MU_ZI.wav,,5ea19dcac30e0005e6e6b6e3,2021-08-03_18h54.36.504,Agingstudy,2020.2.10,Win32,60,,,,,B,,,,,,,,,,,,,,,1,1,0.4217,0,49,49,49,1,1,OLD,OLD,,,,,,,,
,,,,,,,,,,,,,,,,TestWords/KO_SU_FAI.wav,,5ea19dcac30e0005e6e6b6e3,2021-08-03_18h54.36.504,Agingstudy,2020.2.10,Win32,60,,,,,B,,,,,,,,,,,,,,,1,1,0.568,0,50,50,50,1,1,OLD,OLD,,,,,,,,
,,,,,,,,,,,,,,,,TestWords/KAI_LAY_TA.wav,,5ea19dcac30e0005e6e6b6e3,2021-08-03_18h54.36.504,Agingstudy,2020.2.10,Win32,60,,,,,B,,,,,,,,,,,,,,,2,0,1.1057,0,51,51,51,1,1,OLD,OLD,,,,,,,,
,,,,,,,,,,,,,,,,TestWords/HA_SI_JAI.wav,,5ea19dcac30e0005e6e6b6e3,2021-08-03_18h54.36.504,Agingstudy,2020.2.10,Win32,60,,,,,B,,,,,,,,,,,,,,,2,1,8.1925,0,52,52,52,1,2,NEW,NEW,,,,,,,,
,,,,,,,,,,,,,,,,TestWords/RAY_PA_TI.wav,,5ea19dcac30e0005e6e6b6e3,2021-08-03_18h54.36.504,Agingstudy,2020.2.10,Win32,60,,,,,B,,,,,,,,,,,,,,,1,1,0.5127,0,53,53,53,1,1,OLD,OLD,,,,,,,,
,,,,,,,,,,,,,,,,TestWords/VU_WAI_NA.wav,,5ea19dcac30e0005e6e6b6e3,2021-08-03_18h54.36.504,Agingstudy,2020.2.10,Win32,60,,,,,B,,,,,,,,,,,,,,,2,1,1.0161,0,54,54,54,1,2,NEW,SIMILAR,,,,,,,,
,,,,,,,,,,,,,,,,TestWords/DAI_RU_CHI.wav,,5ea19dcac30e0005e6e6b6e3,2021-08-03_18h54.36.504,Agingstudy,2020.2.10,Win32,60,,,,,B,,,,,,,,,,,,,,,1,1,1.3263,0,55,55,55,1,1,OLD,OLD,,,,,,,,
,,,,,,,,,,,,,,,,TestWords/GA_MU_ZI.wav,,5ea19dcac30e0005e6e6b6e3,2021-08-03_18h54.36.504,Agingstudy,2020.2.10,Win32,60,,,,,B,,,,,,,,,,,,,,,1,1,0.4087,0,56,56,56,1,1,OLD,OLD,,,,,,,,
,,,,,,,,,,,,,,,,TestWords/KAI_LAY_TA.wav,,5ea19dcac30e0005e6e6b6e3,2021-08-03_18h54.36.504,Agingstudy,2020.2.10,Win32,60,,,,,B,,,,,,,,,,,,,,,2,0,0.5232,0,57,57,57,1,1,OLD,OLD,,,,,,,,
,,,,,,,,,,,,,,,,TestWords/NU_CHAY_SO.wav,,5ea19dcac30e0005e6e6b6e3,2021-08-03_18h54.36.504,Agingstudy,2020.2.10,Win32,60,,,,,B,,,,,,,,,,,,,,,2,1,0.8668,0,58,58,58,1,2,NEW,NEW,,,,,,,,
,,,,,,,,,,,,,,,,TestWords/KO_SU_FAI.wav,,5ea19dcac30e0005e6e6b6e3,2021-08-03_18h54.36.504,Agingstudy,2020.2.10,Win32,60,,,,,B,,,,,,,,,,,,,,,1,1,0.9936,0,59,59,59,1,1,OLD,OLD,,,,,,,,
,,,,,,,,,,,,,,,,TestWords/RAY_PA_TI.wav,,5ea19dcac30e0005e6e6b6e3,2021-08-03_18h54.36.504,Agingstudy,2020.2.10,Win32,60,,,,,B,,,,,,,,,,,,,,,1,1,0.3341,0,60,60,60,1,1,OLD,OLD,,,,,,,,
,,,,,,,,,,,,,,,,TestWords/BA_KAY_LI.wav,,5ea19dcac30e0005e6e6b6e3,2021-08-03_18h54.36.504,Agingstudy,2020.2.10,Win32,60,,,,,B,,,,,,,,,,,,,,,2,1,0.417,0,61,61,61,1,2,NEW,NEW,,,,,,,,
,,,,,,,,,,,,,,,,TestWords/KAI_LAY_TA.wav,,5ea19dcac30e0005e6e6b6e3,2021-08-03_18h54.36.504,Agingstudy,2020.2.10,Win32,60,,,,,B,,,,,,,,,,,,,,,2,0,0.4879,0,62,62,62,1,1,OLD,OLD,,,,,,,,
,,,,,,,,,,,,,,,,TestWords/NA_VU_WAI.wav,,5ea19dcac30e0005e6e6b6e3,2021-08-03_18h54.36.504,Agingstudy,2020.2.10,Win32,60,,,,,B,,,,,,,,,,,,,,,1,0,1.107,0,63,63,63,1,2,NEW,SIMILAR,,,,,,,,
,,,,,,,,,,,,,,,,TestWords/GA_MU_ZI.wav,,5ea19dcac30e0005e6e6b6e3,2021-08-03_18h54.36.504,Agingstudy,2020.2.10,Win32,60,,,,,B,,,,,,,,,,,,,,,1,1,0.5736,0,64,64,64,1,1,OLD,OLD,,,,,,,,
,,,,,,,,,,,,,,,,TestWords/KO_SU_FAI.wav,,5ea19dcac30e0005e6e6b6e3,2021-08-03_18h54.36.504,Agingstudy,2020.2.10,Win32,60,,,,,B,,,,,,,,,,,,,,,1,1,0.5589,0,65,65,65,1,1,OLD,OLD,,,,,,,,
,,,,,,,,,,,,,,,,TestWords/DAI_RU_CHI.wav,,5ea19dcac30e0005e6e6b6e3,2021-08-03_18h54.36.504,Agingstudy,2020.2.10,Win32,60,,,,,B,,,,,,,,,,,,,,,1,1,0.6487,0,66,66,66,1,1,OLD,OLD,,,,,,,,
,,,,,,,,,,,,,,,,TestWords/GU_CHAI_PI.wav,,5ea19dcac30e0005e6e6b6e3,2021-08-03_18h54.36.504,Agingstudy,2020.2.10,Win32,60,,,,,B,,,,,,,,,,,,,,,2,1,0.7611,0,67,67,67,1,2,NEW,NEW,,,,,,,,
,,,,,,,,,,,,,,,,TestWords/RAY_PA_TI.wav,,5ea19dcac30e0005e6e6b6e3,2021-08-03_18h54.36.504,Agingstudy,2020.2.10,Win32,60,,,,,B,,,,,,,,,,,,,,,1,1,0.4319,0,68,68,68,1,1,OLD,OLD,,,,,,,,
,,,,,,,,,,,,,,,,TestWords/KAY_LI_BA.wav,,5ea19dcac30e0005e6e6b6e3,2021-08-03_18h54.36.504,Agingstudy,2020.2.10,Win32,60,,,,,B,,,,,,,,,,,,,,,1,0,0.4728,0,69,69,69,1,2,NEW,SIMILAR,,,,,,,,
,,,,,,,,,,,,,,,,TestWords/KAI_LAY_TA.wav,,5ea19dcac30e0005e6e6b6e3,2021-08-03_18h54.36.504,Agingstudy,2020.2.10,Win32,60,,,,,B,,,,,,,,,,,,,,,1,1,1.3336,0,70,70,70,1,1,OLD,OLD,,,,,,,,
,,,,,,,,,,,,,,,,TestWords/KO_SU_FAI.wav,,5ea19dcac30e0005e6e6b6e3,2021-08-03_18h54.36.504,Agingstudy,2020.2.10,Win32,60,,,,,B,,,,,,,,,,,,,,,1,1,0.7196,0,71,71,71,1,1,OLD,OLD,,,,,,,,
,,,,,,,,,,,,,,,,TestWords/DAI_RU_CHI.wav,,5ea19dcac30e0005e6e6b6e3,2021-08-03_18h54.36.504,Agingstudy,2020.2.10,Win32,60,,,,,B,,,,,,,,,,,,,,,2,0,0.7019,0,72,72,72,1,1,OLD,OLD,,,,,,,,
,,,,,,,,,,,,,,,,TestWords/NA_WAI_VU.wav,,5ea19dcac30e0005e6e6b6e3,2021-08-03_18h54.36.504,Agingstudy,2020.2.10,Win32,60,,,,,B,,,,,,,,,,,,,,,1,0,0.9347,0,73,73,73,1,2,NEW,SIMILAR,,,,,,,,
,,,,,,,,,,,,,,,,TestWords/GA_MU_ZI.wav,,5ea19dcac30e0005e6e6b6e3,2021-08-03_18h54.36.504,Agingstudy,2020.2.10,Win32,60,,,,,B,,,,,,,,,,,,,,,1,1,0.6354,0,74,74,74,1,1,OLD,OLD,,,,,,,,
,,,,,,,,,,,,,,,,TestWords/KAY_BA_LI.wav,,5ea19dcac30e0005e6e6b6e3,2021-08-03_18h54.36.504,Agingstudy,2020.2.10,Win32,60,,,,,B,,,,,,,,,,,,,,,1,0,0.9164,0,75,75,75,1,2,NEW,SIMILAR,,,,,,,,
,,,,,,,,,,,,,,,,TestWords/WAI_RO_JU.wav,,5ea19dcac30e0005e6e6b6e3,2021-08-03_18h54.36.504,Agingstudy,2020.2.10,Win32,60,,,,,B,,,,,,,,,,,,,,,2,1,0.7331,0,76,76,76,1,2,NEW,NEW,,,,,,,,
,,,,,,,,,,,,,,,,TestWords/RAY_PA_TI.wav,,5ea19dcac30e0005e6e6b6e3,2021-08-03_18h54.36.504,Agingstudy,2020.2.10,Win32,60,,,,,B,,,,,,,,,,,,,,,1,1,0.4941,0,77,77,77,1,1,OLD,OLD,,,,,,,,
,,,,,,,,,,,,,,,,TestWords/KAI_LAY_TA.wav,,5ea19dcac30e0005e6e6b6e3,2021-08-03_18h54.36.504,Agingstudy,2020.2.10,Win32,60,,,,,B,,,,,,,,,,,,,,,1,1,0.6114,0,78,78,78,1,1,OLD,OLD,,,,,,,,
,,,,,,,,,,,,,,,,TestWords/HI_NAY_VA.wav,,5ea19dcac30e0005e6e6b6e3,2021-08-03_18h54.36.504,Agingstudy,2020.2.10,Win32,60,,,,,B,,,,,,,,,,,,,,,2,1,0.6171,0,79,79,79,1,2,NEW,NEW,,,,,,,,
,,,,,,,,,,,,,,,,TestWords/KO_SU_FAI.wav,,5ea19dcac30e0005e6e6b6e3,2021-08-03_18h54.36.504,Agingstudy,2020.2.10,Win32,60,,,,,B,,,,,,,,,,,,,,,1,1,0.4855,0,80,80,80,1,1,OLD,OLD,,,,,,,,
,,,,,,,,,,,,,,,,TestWords/GA_MU_ZI.wav,,5ea19dcac30e0005e6e6b6e3,2021-08-03_18h54.36.504,Agingstudy,2020.2.10,Win32,60,,,,,B,,,,,,,,,,,,,,,1,1,0.4381,0,81,81,81,1,1,OLD,OLD,,,,,,,,
,,,,,,,,,,,,,,,,TestWords/KAI_LAY_TA.wav,,5ea19dcac30e0005e6e6b6e3,2021-08-03_18h54.36.504,Agingstudy,2020.2.10,Win32,60,,,,,B,,,,,,,,,,,,,,,1,1,0.4676,0,82,82,82,1,1,OLD,OLD,,,,,,,,
,,,,,,,,,,,,,,,,TestWords/LI_BA_KAY.wav,,5ea19dcac30e0005e6e6b6e3,2021-08-03_18h54.36.504,Agingstudy,2020.2.10,Win32,60,,,,,B,,,,,,,,,,,,,,,2,1,1.0001,0,83,83,83,1,2,NEW,SIMILAR,,,,,,,,
,,,,,,,,,,,,,,,,TestWords/DAI_RU_CHI.wav,,5ea19dcac30e0005e6e6b6e3,2021-08-03_18h54.36.504,Agingstudy,2020.2.10,Win32,60,,,,,B,,,,,,,,,,,,,,,1,1,1.799,0,84,84,84,1,1,OLD,OLD,,,,,,,,
,,,,,,,,,,,,,,,,TestWords/KO_SU_FAI.wav,,5ea19dcac30e0005e6e6b6e3,2021-08-03_18h54.36.504,Agingstudy,2020.2.10,Win32,60,,,,,B,,,,,,,,,,,,,,,1,1,2.8536,0,85,85,85,1,1,OLD,OLD,,,,,,,,
,,,,,,,,,,,,,,,,TestWords/NO_WA_BAY.wav,,5ea19dcac30e0005e6e6b6e3,2021-08-03_18h54.36.504,Agingstudy,2020.2.10,Win32,60,,,,,B,,,,,,,,,,,,,,,2,1,0.5674,0,86,86,86,1,2,NEW,NEW,,,,,,,,
,,,,,,,,,,,,,,,,TestWords/KAI_LAY_TA.wav,,5ea19dcac30e0005e6e6b6e3,2021-08-03_18h54.36.504,Agingstudy,2020.2.10,Win32,60,,,,,B,,,,,,,,,,,,,,,1,1,0.6395,0,87,87,87,1,1,OLD,OLD,,,,,,,,
,,,,,,,,,,,,,,,,TestWords/GA_MU_ZI.wav,,5ea19dcac30e0005e6e6b6e3,2021-08-03_18h54.36.504,Agingstudy,2020.2.10,Win32,60,,,,,B,,,,,,,,,,,,,,,1,1,0.4947,0,88,88,88,1,1,OLD,OLD,,,,,,,,
,,,,,,,,,,,,,,,,TestWords/DAI_RU_CHI.wav,,5ea19dcac30e0005e6e6b6e3,2021-08-03_18h54.36.504,Agingstudy,2020.2.10,Win32,60,,,,,B,,,,,,,,,,,,,,,1,1,0.7261,0,89,89,89,1,1,OLD,OLD,,,,,,,,
,,,,,,,,,,,,,,,,TestWords/LA_ZAY_CHAI.wav,,5ea19dcac30e0005e6e6b6e3,2021-08-03_18h54.36.504,Agingstudy,2020.2.10,Win32,60,,,,,B,,,,,,,,,,,,,,,2,1,0.4502,0,90,90,90,1,2,NEW,NEW,,,,,,,,
,,,,,,,,,,,,,,,,TestWords/BA_LI_KAY.wav,,5ea19dcac30e0005e6e6b6e3,2021-08-03_18h54.36.504,Agingstudy,2020.2.10,Win32,60,,,,,B,,,,,,,,,,,,,,,1,0,1.3821,0,91,91,91,1,2,NEW,SIMILAR,,,,,,,,
,,,,,,,,,,,,,,,,TestWords/PAI_LU_WA.wav,,5ea19dcac30e0005e6e6b6e3,2021-08-03_18h54.36.504,Agingstudy,2020.2.10,Win32,60,,,,,B,,,,,,,,,,,,,,,2,1,0.6002,0,92,92,92,1,2,NEW,NEW,,,,,,,,
,,,,,,,,,,,,,,,,TestWords/KO_SU_FAI.wav,,5ea19dcac30e0005e6e6b6e3,2021-08-03_18h54.36.504,Agingstudy,2020.2.10,Win32,60,,,,,B,,,,,,,,,,,,,,,1,1,0.9836,0,93,93,93,1,1,OLD,OLD,,,,,,,,
,,,,,,,,,,,,,,,,TestWords/KAI_LAY_TA.wav,,5ea19dcac30e0005e6e6b6e3,2021-08-03_18h54.36.504,Agingstudy,2020.2.10,Win32,60,,,,,B,,,,,,,,,,,,,,,1,1,2.4547,0,94,94,94,1,1,OLD,OLD,,,,,,,,
,,,,,,,,,,,,,,,,TestWords/VAI_HO_LA.wav,,5ea19dcac30e0005e6e6b6e3,2021-08-03_18h54.36.504,Agingstudy,2020.2.10,Win32,60,,,,,B,,,,,,,,,,,,,,,2,1,0.5394,0,95,95,95,1,2,NEW,NEW,,,,,,,,
,,,,,,,,,,,,,,,,TestWords/GA_MU_ZI.wav,,5ea19dcac30e0005e6e6b6e3,2021-08-03_18h54.36.504,Agingstudy,2020.2.10,Win32,60,,,,,B,,,,,,,,,,,,,,,1,1,0.5257,0,96,96,96,1,1,OLD,OLD,,,,,,,,
,,,,,,,,,,,,,,,,TestWords/LI_KAY_BA.wav,,5ea19dcac30e0005e6e6b6e3,2021-08-03_18h54.36.504,Agingstudy,2020.2.10,Win32,60,,,,,B,,,,,,,,,,,,,,,1,0,0.923,0,97,97,97,1,2,NEW,SIMILAR,,,,,,,,
,,,,,,,,,,,,,,,,TestWords/KAI_LAY_TA.wav,,5ea19dcac30e0005e6e6b6e3,2021-08-03_18h54.36.504,Agingstudy,2020.2.10,Win32,60,,,,,B,,,,,,,,,,,,,,,1,1,0.5101,0,98,98,98,1,1,OLD,OLD,,,,,,,,
,,,,,,,,,,,,,,,,TestWords/SI_VAI_CHU.wav,,5ea19dcac30e0005e6e6b6e3,2021-08-03_18h54.36.504,Agingstudy,2020.2.10,Win32,60,,,,,B,,,,,,,,,,,,,,,2,1,0.5364,0,99,99,99,1,2,NEW,NEW,,,,,,,,
,,,,,,,,,,,,,,,,,,5ea19dcac30e0005e6e6b6e3,2021-08-03_18h54.36.504,Agingstudy,2020.2.10,Win32,60,,,,,,,,,,,,,,,,,,,,,,,,,,,,,,,0,0,0,0,1,,,
,,,,,,,,,,,,,,,,,,5ea19dcac30e0005e6e6b6e3,2021-08-03_18h54.36.504,Agingstudy,2020.2.10,Win32,60,,,,,,,,,,,,,,,,,,,,,,,,,,,,,,,,,,,,return,19.0472,
