Welcome0Continue.keys,Welcome0Continue.rt,SoundCheckBegin.keys,SoundCheckBegin.rt,SoundCheckEndKey.keys,SoundCheckEndKey.rt,HeadphoneContinueKey.keys,HeadphoneContinueKey.rt,CheckResp.keys,CheckResp.corr,CheckResp.rt,HeadphoneLoop.thisRepN,HeadphoneLoop.thisTrialN,HeadphoneLoop.thisN,HeadphoneLoop.thisIndex,HeadphoneLoop.ran,File,Correct,participant,date,expName,psychopyVersion,OS,frameRate,ContinueKey8.keys,ContinueKey8.rt,MSTWelcomeContKey.keys,MSTWelcomeContKey.rt,Condition,MSTTrainIntroKey.keys,MSTTrainIntroKey.rt,MSTTrainKeys.keys,MSTTrainKeys.corr,MSTTrainKeys.rt,MSTTrainLoop.thisRepN,MSTTrainLoop.thisTrialN,MSTTrainLoop.thisN,MSTTrainLoop.thisIndex,MSTTrainLoop.ran,SoundFile,Type,MSTTestBeginKey.keys,MSTTestBeginKey.rt,MST_resp.keys,MST_resp.corr,MST_resp.rt,MSTPlayLoop.thisRepN,MSTPlayLoop.thisTrialN,MSTPlayLoop.thisN,MSTPlayLoop.thisIndex,MSTPlayLoop.ran,WordCorrect,Correct_type,WordType,MSTLoop.thisRepN,MSTLoop.thisTrialN,MSTLoop.thisN,MSTLoop.thisIndex,MSTLoop.ran,EndAllKey.keys,EndAllKey.rt,FeedbackResp.text
space,7.8304,space,6.1056,space,28.12,space,9.8425,3,1,3.7869,0,0,0,4,1,Headphone/t3_1.wav,3,5ea95ba3b85a0604454c8624,2021-11-02_07h18.55.811,Agingstudy,2020.2.10,Win32,60,,,,,,,,,,,,,,,,,,,,,,,,,,,,,,,,,,,,,,
,,,,,,,,1,1,1.5518,0,1,1,0,1,Headphone/t1_1.wav,1,5ea95ba3b85a0604454c8624,2021-11-02_07h18.55.811,Agingstudy,2020.2.10,Win32,60,,,,,,,,,,,,,,,,,,,,,,,,,,,,,,,,,,,,,,
,,,,,,,,1,1,1.3517,0,2,2,1,1,Headphone/t1_2.wav,1,5ea95ba3b85a0604454c8624,2021-11-02_07h18.55.811,Agingstudy,2020.2.10,Win32,60,,,,,,,,,,,,,,,,,,,,,,,,,,,,,,,,,,,,,,
,,,,,,,,2,1,1.5764,0,3,3,3,1,Headphone/t2_2.wav,2,5ea95ba3b85a0604454c8624,2021-11-02_07h18.55.811,Agingstudy,2020.2.10,Win32,60,,,,,,,,,,,,,,,,,,,,,,,,,,,,,,,,,,,,,,
,,,,,,,,2,1,1.4184,0,4,4,2,1,Headphone/t2_1.wav,2,5ea95ba3b85a0604454c8624,2021-11-02_07h18.55.811,Agingstudy,2020.2.10,Win32,60,,,,,,,,,,,,,,,,,,,,,,,,,,,,,,,,,,,,,,
,,,,,,,,3,1,1.1597,0,5,5,5,1,Headphone/t3_2.wav,3,5ea95ba3b85a0604454c8624,2021-11-02_07h18.55.811,Agingstudy,2020.2.10,Win32,60,,,,,,,,,,,,,,,,,,,,,,,,,,,,,,,,,,,,,,
,,,,,,,,,,,,,,,,,2,5ea95ba3b85a0604454c8624,2021-11-02_07h18.55.811,Agingstudy,2020.2.10,Win32,60,space,32.7221,space,6.8732,1,space,4.438,2,1,4.4713,0,0,0,0,1,Training/FO_YI_LAY.wav,NEW,,,,,,,,,,,,,,,,,,,,,
,,,,,,,,,,,,,,,,,1,5ea95ba3b85a0604454c8624,2021-11-02_07h18.55.811,Agingstudy,2020.2.10,Win32,60,,,,,,,,1,1,2.4614,0,1,1,1,1,Training/FO_YI_LAY.wav,OLD,,,,,,,,,,,,,,,,,,,,,
,,,,,,,,,,,,,,,,,2,5ea95ba3b85a0604454c8624,2021-11-02_07h18.55.811,Agingstudy,2020.2.10,Win32,60,,,,,,,,1,0,6.6938,0,2,2,2,1,Training/YO_BU_JAY.wav,NEW,,,,,,,,,,,,,,,,,,,,,
,,,,,,,,,,,,,,,,,2,5ea95ba3b85a0604454c8624,2021-11-02_07h18.55.811,Agingstudy,2020.2.10,Win32,60,,,,,,,,2,1,1.8181,0,3,3,3,1,Training/JAY_YO_BU.wav,SIMILAR,,,,,,,,,,,,,,,,,,,,,
,,,,,,,,,,,,,,,,,1,5ea95ba3b85a0604454c8624,2021-11-02_07h18.55.811,Agingstudy,2020.2.10,Win32,60,,,,,,,,2,0,1.2284,0,4,4,4,1,Training/FO_YI_LAY.wav,OLD,,,,,,,,,,,,,,,,,,,,,
,,,,,,,,,,,,,,,,TestWords/HA_SI_JAI.wav,,5ea95ba3b85a0604454c8624,2021-11-02_07h18.55.811,Agingstudy,2020.2.10,Win32,60,,,,,C,,,,,,,,,,,,,space,14.6665,2,1,4.6063,0,0,0,0,1,2,NEW,NEW,,,,,,,,
,,,,,,,,,,,,,,,,TestWords/NO_WA_BAY.wav,,5ea95ba3b85a0604454c8624,2021-11-02_07h18.55.811,Agingstudy,2020.2.10,Win32,60,,,,,C,,,,,,,,,,,,,,,2,1,1.7555,0,1,1,1,1,2,NEW,NEW,,,,,,,,
,,,,,,,,,,,,,,,,TestWords/KO_SU_FAI.wav,,5ea95ba3b85a0604454c8624,2021-11-02_07h18.55.811,Agingstudy,2020.2.10,Win32,60,,,,,C,,,,,,,,,,,,,,,2,1,1.6049,0,2,2,2,1,2,NEW,NEW,,,,,,,,
,,,,,,,,,,,,,,,,TestWords/TAI_SA_GI.wav,,5ea95ba3b85a0604454c8624,2021-11-02_07h18.55.811,Agingstudy,2020.2.10,Win32,60,,,,,C,,,,,,,,,,,,,,,2,1,1.0688,0,3,3,3,1,2,NEW,NEW,,,,,,,,
,,,,,,,,,,,,,,,,TestWords/HO_NAY_VA.wav,,5ea95ba3b85a0604454c8624,2021-11-02_07h18.55.811,Agingstudy,2020.2.10,Win32,60,,,,,C,,,,,,,,,,,,,,,2,1,1.4187,0,4,4,4,1,2,NEW,NEW,,,,,,,,
,,,,,,,,,,,,,,,,TestWords/KAI_LAY_TA.wav,,5ea95ba3b85a0604454c8624,2021-11-02_07h18.55.811,Agingstudy,2020.2.10,Win32,60,,,,,C,,,,,,,,,,,,,,,2,1,0.9536,0,5,5,5,1,2,NEW,NEW,,,,,,,,
,,,,,,,,,,,,,,,,TestWords/FI_GU_CHA.wav,,5ea95ba3b85a0604454c8624,2021-11-02_07h18.55.811,Agingstudy,2020.2.10,Win32,60,,,,,C,,,,,,,,,,,,,,,2,1,0.8118,0,6,6,6,1,2,NEW,NEW,,,,,,,,
,,,,,,,,,,,,,,,,TestWords/GI_SA_TAI.wav,,5ea95ba3b85a0604454c8624,2021-11-02_07h18.55.811,Agingstudy,2020.2.10,Win32,60,,,,,C,,,,,,,,,,,,,,,2,1,1.1887,0,7,7,7,1,2,NEW,SIMILAR,,,,,,,,
,,,,,,,,,,,,,,,,TestWords/LU_HAI_BO.wav,,5ea95ba3b85a0604454c8624,2021-11-02_07h18.55.811,Agingstudy,2020.2.10,Win32,60,,,,,C,,,,,,,,,,,,,,,2,1,1.2695,0,8,8,8,1,2,NEW,NEW,,,,,,,,
,,,,,,,,,,,,,,,,TestWords/KO_SU_FAI.wav,,5ea95ba3b85a0604454c8624,2021-11-02_07h18.55.811,Agingstudy,2020.2.10,Win32,60,,,,,C,,,,,,,,,,,,,,,1,1,1.747,0,9,9,9,1,1,OLD,OLD,,,,,,,,
,,,,,,,,,,,,,,,,TestWords/DAI_RU_CHI.wav,,5ea95ba3b85a0604454c8624,2021-11-02_07h18.55.811,Agingstudy,2020.2.10,Win32,60,,,,,C,,,,,,,,,,,,,,,2,1,1.1346,0,10,10,10,1,2,NEW,NEW,,,,,,,,
,,,,,,,,,,,,,,,,TestWords/CHU_LA_PAY.wav,,5ea95ba3b85a0604454c8624,2021-11-02_07h18.55.811,Agingstudy,2020.2.10,Win32,60,,,,,C,,,,,,,,,,,,,,,2,1,0.9602,0,11,11,11,1,2,NEW,NEW,,,,,,,,
,,,,,,,,,,,,,,,,TestWords/KAI_LAY_TA.wav,,5ea95ba3b85a0604454c8624,2021-11-02_07h18.55.811,Agingstudy,2020.2.10,Win32,60,,,,,C,,,,,,,,,,,,,,,1,1,1.0265,0,12,12,12,1,1,OLD,OLD,,,,,,,,
,,,,,,,,,,,,,,,,TestWords/GI_TAI_SA.wav,,5ea95ba3b85a0604454c8624,2021-11-02_07h18.55.811,Agingstudy,2020.2.10,Win32,60,,,,,C,,,,,,,,,,,,,,,2,1,0.8185,0,13,13,13,1,2,NEW,SIMILAR,,,,,,,,
,,,,,,,,,,,,,,,,TestWords/DAY_PU_MO.wav,,5ea95ba3b85a0604454c8624,2021-11-02_07h18.55.811,Agingstudy,2020.2.10,Win32,60,,,,,C,,,,,,,,,,,,,,,2,1,0.978,0,14,14,14,1,2,NEW,NEW,,,,,,,,
,,,,,,,,,,,,,,,,TestWords/KO_SU_FAI.wav,,5ea95ba3b85a0604454c8624,2021-11-02_07h18.55.811,Agingstudy,2020.2.10,Win32,60,,,,,C,,,,,,,,,,,,,,,1,1,1.0918,0,15,15,15,1,1,OLD,OLD,,,,,,,,
,,,,,,,,,,,,,,,,TestWords/SA_TAI_GI.wav,,5ea95ba3b85a0604454c8624,2021-11-02_07h18.55.811,Agingstudy,2020.2.10,Win32,60,,,,,C,,,,,,,,,,,,,,,1,0,0.7769,0,16,16,16,1,2,NEW,SIMILAR,,,,,,,,
,,,,,,,,,,,,,,,,TestWords/RAY_PA_TI.wav,,5ea95ba3b85a0604454c8624,2021-11-02_07h18.55.811,Agingstudy,2020.2.10,Win32,60,,,,,C,,,,,,,,,,,,,,,2,1,1.8989,0,17,17,17,1,2,NEW,NEW,,,,,,,,
,,,,,,,,,,,,,,,,TestWords/KAI_LAY_TA.wav,,5ea95ba3b85a0604454c8624,2021-11-02_07h18.55.811,Agingstudy,2020.2.10,Win32,60,,,,,C,,,,,,,,,,,,,,,1,1,0.9511,0,18,18,18,1,1,OLD,OLD,,,,,,,,
,,,,,,,,,,,,,,,,TestWords/DAY_MO_PU.wav,,5ea95ba3b85a0604454c8624,2021-11-02_07h18.55.811,Agingstudy,2020.2.10,Win32,60,,,,,C,,,,,,,,,,,,,,,1,0,2.2897,0,19,19,19,1,2,NEW,SIMILAR,,,,,,,,
,,,,,,,,,,,,,,,,TestWords/DAI_RU_CHI.wav,,5ea95ba3b85a0604454c8624,2021-11-02_07h18.55.811,Agingstudy,2020.2.10,Win32,60,,,,,C,,,,,,,,,,,,,,,2,0,1.1515,0,20,20,20,1,1,OLD,OLD,,,,,,,,
,,,,,,,,,,,,,,,,TestWords/SA_GI_TAI.wav,,5ea95ba3b85a0604454c8624,2021-11-02_07h18.55.811,Agingstudy,2020.2.10,Win32,60,,,,,C,,,,,,,,,,,,,,,1,0,1.2075,0,21,21,21,1,2,NEW,SIMILAR,,,,,,,,
,,,,,,,,,,,,,,,,TestWords/KO_SU_FAI.wav,,5ea95ba3b85a0604454c8624,2021-11-02_07h18.55.811,Agingstudy,2020.2.10,Win32,60,,,,,C,,,,,,,,,,,,,,,1,1,1.152,0,22,22,22,1,1,OLD,OLD,,,,,,,,
,,,,,,,,,,,,,,,,TestWords/KAI_LAY_TA.wav,,5ea95ba3b85a0604454c8624,2021-11-02_07h18.55.811,Agingstudy,2020.2.10,Win32,60,,,,,C,,,,,,,,,,,,,,,1,1,0.7299,0,23,23,23,1,1,OLD,OLD,,,,,,,,
,,,,,,,,,,,,,,,,TestWords/RAY_PA_TI.wav,,5ea95ba3b85a0604454c8624,2021-11-02_07h18.55.811,Agingstudy,2020.2.10,Win32,60,,,,,C,,,,,,,,,,,,,,,1,1,0.9661,0,24,24,24,1,1,OLD,OLD,,,,,,,,
,,,,,,,,,,,,,,,,TestWords/MO_DAY_PU.wav,,5ea95ba3b85a0604454c8624,2021-11-02_07h18.55.811,Agingstudy,2020.2.10,Win32,60,,,,,C,,,,,,,,,,,,,,,2,1,0.8877,0,25,25,25,1,2,NEW,SIMILAR,,,,,,,,
,,,,,,,,,,,,,,,,TestWords/DAI_RU_CHI.wav,,5ea95ba3b85a0604454c8624,2021-11-02_07h18.55.811,Agingstudy,2020.2.10,Win32,60,,,,,C,,,,,,,,,,,,,,,2,0,2.3649,0,26,26,26,1,1,OLD,OLD,,,,,,,,
,,,,,,,,,,,,,,,,TestWords/TAI_GI_SA.wav,,5ea95ba3b85a0604454c8624,2021-11-02_07h18.55.811,Agingstudy,2020.2.10,Win32,60,,,,,C,,,,,,,,,,,,,,,2,1,1.4061,0,27,27,27,1,2,NEW,SIMILAR,,,,,,,,
,,,,,,,,,,,,,,,,TestWords/GA_MU_ZI.wav,,5ea95ba3b85a0604454c8624,2021-11-02_07h18.55.811,Agingstudy,2020.2.10,Win32,60,,,,,C,,,,,,,,,,,,,,,2,1,1.0221,0,28,28,28,1,2,NEW,NEW,,,,,,,,
,,,,,,,,,,,,,,,,TestWords/BA_KAY_LI.wav,,5ea95ba3b85a0604454c8624,2021-11-02_07h18.55.811,Agingstudy,2020.2.10,Win32,60,,,,,C,,,,,,,,,,,,,,,2,1,0.4695,0,29,29,29,1,2,NEW,NEW,,,,,,,,
,,,,,,,,,,,,,,,,TestWords/RAY_PA_TI.wav,,5ea95ba3b85a0604454c8624,2021-11-02_07h18.55.811,Agingstudy,2020.2.10,Win32,60,,,,,C,,,,,,,,,,,,,,,1,1,0.8037,0,30,30,30,1,1,OLD,OLD,,,,,,,,
,,,,,,,,,,,,,,,,TestWords/KO_SU_FAI.wav,,5ea95ba3b85a0604454c8624,2021-11-02_07h18.55.811,Agingstudy,2020.2.10,Win32,60,,,,,C,,,,,,,,,,,,,,,1,1,1.0202,0,31,31,31,1,1,OLD,OLD,,,,,,,,
,,,,,,,,,,,,,,,,TestWords/PU_DAY_MO.wav,,5ea95ba3b85a0604454c8624,2021-11-02_07h18.55.811,Agingstudy,2020.2.10,Win32,60,,,,,C,,,,,,,,,,,,,,,2,1,0.9401,0,32,32,32,1,2,NEW,SIMILAR,,,,,,,,
,,,,,,,,,,,,,,,,TestWords/KAI_LAY_TA.wav,,5ea95ba3b85a0604454c8624,2021-11-02_07h18.55.811,Agingstudy,2020.2.10,Win32,60,,,,,C,,,,,,,,,,,,,,,1,1,0.6467,0,33,33,33,1,1,OLD,OLD,,,,,,,,
,,,,,,,,,,,,,,,,TestWords/DAI_RU_CHI.wav,,5ea95ba3b85a0604454c8624,2021-11-02_07h18.55.811,Agingstudy,2020.2.10,Win32,60,,,,,C,,,,,,,,,,,,,,,1,1,0.7903,0,34,34,34,1,1,OLD,OLD,,,,,,,,
,,,,,,,,,,,,,,,,TestWords/KAY_LI_BA.wav,,5ea95ba3b85a0604454c8624,2021-11-02_07h18.55.811,Agingstudy,2020.2.10,Win32,60,,,,,C,,,,,,,,,,,,,,,1,0,2.0937,0,35,35,35,1,2,NEW,SIMILAR,,,,,,,,
,,,,,,,,,,,,,,,,TestWords/GA_MU_ZI.wav,,5ea95ba3b85a0604454c8624,2021-11-02_07h18.55.811,Agingstudy,2020.2.10,Win32,60,,,,,C,,,,,,,,,,,,,,,2,0,0.5553,0,36,36,36,1,1,OLD,OLD,,,,,,,,
,,,,,,,,,,,,,,,,TestWords/RAY_PA_TI.wav,,5ea95ba3b85a0604454c8624,2021-11-02_07h18.55.811,Agingstudy,2020.2.10,Win32,60,,,,,C,,,,,,,,,,,,,,,1,1,0.4156,0,37,37,37,1,1,OLD,OLD,,,,,,,,
,,,,,,,,,,,,,,,,TestWords/PU_MO_DAY.wav,,5ea95ba3b85a0604454c8624,2021-11-02_07h18.55.811,Agingstudy,2020.2.10,Win32,60,,,,,C,,,,,,,,,,,,,,,2,1,1.0866,0,38,38,38,1,2,NEW,SIMILAR,,,,,,,,
,,,,,,,,,,,,,,,,TestWords/VAI_HO_LA.wav,,5ea95ba3b85a0604454c8624,2021-11-02_07h18.55.811,Agingstudy,2020.2.10,Win32,60,,,,,C,,,,,,,,,,,,,,,2,1,0.9715,0,39,39,39,1,2,NEW,NEW,,,,,,,,
,,,,,,,,,,,,,,,,TestWords/KAI_LAY_TA.wav,,5ea95ba3b85a0604454c8624,2021-11-02_07h18.55.811,Agingstudy,2020.2.10,Win32,60,,,,,C,,,,,,,,,,,,,,,1,1,0.6371,0,40,40,40,1,1,OLD,OLD,,,,,,,,
,,,,,,,,,,,,,,,,TestWords/KO_SU_FAI.wav,,5ea95ba3b85a0604454c8624,2021-11-02_07h18.55.811,Agingstudy,2020.2.10,Win32,60,,,,,C,,,,,,,,,,,,,,,2,0,1.0205,0,41,41,41,1,1,OLD,OLD,,,,,,,,
,,,,,,,,,,,,,,,,TestWords/DAI_RU_CHI.wav,,5ea95ba3b85a0604454c8624,2021-11-02_07h18.55.811,Agingstudy,2020.2.10,Win32,60,,,,,C,,,,,,,,,,,,,,,1,1,1.0583,0,42,42,42,1,1,OLD,OLD,,,,,,,,
,,,,,,,,,,,,,,,,TestWords/WAI_VU_NA.wav,,5ea95ba3b85a0604454c8624,2021-11-02_07h18.55.811,Agingstudy,2020.2.10,Win32,60,,,,,C,,,,,,,,,,,,,,,2,1,0.7622,0,43,43,43,1,2,NEW,NEW,,,,,,,,
,,,,,,,,,,,,,,,,TestWords/GA_MU_ZI.wav,,5ea95ba3b85a0604454c8624,2021-11-02_07h18.55.811,Agingstudy,2020.2.10,Win32,60,,,,,C,,,,,,,,,,,,,,,2,0,0.667,0,44,44,44,1,1,OLD,OLD,,,,,,,,
,,,,,,,,,,,,,,,,TestWords/KAY_BA_LI.wav,,5ea95ba3b85a0604454c8624,2021-11-02_07h18.55.811,Agingstudy,2020.2.10,Win32,60,,,,,C,,,,,,,,,,,,,,,1,0,0.755,0,45,45,45,1,2,NEW,SIMILAR,,,,,,,,
,,,,,,,,,,,,,,,,TestWords/MO_PU_DAY.wav,,5ea95ba3b85a0604454c8624,2021-11-02_07h18.55.811,Agingstudy,2020.2.10,Win32,60,,,,,C,,,,,,,,,,,,,,,2,1,0.6137,0,46,46,46,1,2,NEW,SIMILAR,,,,,,,,
,,,,,,,,,,,,,,,,TestWords/RAY_PA_TI.wav,,5ea95ba3b85a0604454c8624,2021-11-02_07h18.55.811,Agingstudy,2020.2.10,Win32,60,,,,,C,,,,,,,,,,,,,,,1,1,0.4462,0,47,47,47,1,1,OLD,OLD,,,,,,,,
,,,,,,,,,,,,,,,,TestWords/KAI_LAY_TA.wav,,5ea95ba3b85a0604454c8624,2021-11-02_07h18.55.811,Agingstudy,2020.2.10,Win32,60,,,,,C,,,,,,,,,,,,,,,1,1,1.078,0,48,48,48,1,1,OLD,OLD,,,,,,,,
,,,,,,,,,,,,,,,,TestWords/WAI_NA_VU.wav,,5ea95ba3b85a0604454c8624,2021-11-02_07h18.55.811,Agingstudy,2020.2.10,Win32,60,,,,,C,,,,,,,,,,,,,,,2,1,1.0756,0,49,49,49,1,2,NEW,SIMILAR,,,,,,,,
,,,,,,,,,,,,,,,,TestWords/KO_SU_FAI.wav,,5ea95ba3b85a0604454c8624,2021-11-02_07h18.55.811,Agingstudy,2020.2.10,Win32,60,,,,,C,,,,,,,,,,,,,,,1,1,1.0014,0,50,50,50,1,1,OLD,OLD,,,,,,,,
,,,,,,,,,,,,,,,,TestWords/GA_MU_ZI.wav,,5ea95ba3b85a0604454c8624,2021-11-02_07h18.55.811,Agingstudy,2020.2.10,Win32,60,,,,,C,,,,,,,,,,,,,,,1,1,0.9856,0,51,51,51,1,1,OLD,OLD,,,,,,,,
,,,,,,,,,,,,,,,,TestWords/NU_CHAY_SO.wav,,5ea95ba3b85a0604454c8624,2021-11-02_07h18.55.811,Agingstudy,2020.2.10,Win32,60,,,,,C,,,,,,,,,,,,,,,2,1,0.7949,0,52,52,52,1,2,NEW,NEW,,,,,,,,
,,,,,,,,,,,,,,,,TestWords/DAI_RU_CHI.wav,,5ea95ba3b85a0604454c8624,2021-11-02_07h18.55.811,Agingstudy,2020.2.10,Win32,60,,,,,C,,,,,,,,,,,,,,,1,1,0.9637,0,53,53,53,1,1,OLD,OLD,,,,,,,,
,,,,,,,,,,,,,,,,TestWords/VU_NA_WAI.wav,,5ea95ba3b85a0604454c8624,2021-11-02_07h18.55.811,Agingstudy,2020.2.10,Win32,60,,,,,C,,,,,,,,,,,,,,,2,1,0.2861,0,54,54,54,1,2,NEW,SIMILAR,,,,,,,,
,,,,,,,,,,,,,,,,TestWords/RAY_PA_TI.wav,,5ea95ba3b85a0604454c8624,2021-11-02_07h18.55.811,Agingstudy,2020.2.10,Win32,60,,,,,C,,,,,,,,,,,,,,,1,1,0.1557,0,55,55,55,1,1,OLD,OLD,,,,,,,,
,,,,,,,,,,,,,,,,TestWords/KAI_LAY_TA.wav,,5ea95ba3b85a0604454c8624,2021-11-02_07h18.55.811,Agingstudy,2020.2.10,Win32,60,,,,,C,,,,,,,,,,,,,,,1,1,0.2367,0,56,56,56,1,1,OLD,OLD,,,,,,,,
,,,,,,,,,,,,,,,,TestWords/LI_BA_KAY.wav,,5ea95ba3b85a0604454c8624,2021-11-02_07h18.55.811,Agingstudy,2020.2.10,Win32,60,,,,,C,,,,,,,,,,,,,,,1,0,0.7424,0,57,57,57,1,2,NEW,SIMILAR,,,,,,,,
,,,,,,,,,,,,,,,,TestWords/GA_MU_ZI.wav,,5ea95ba3b85a0604454c8624,2021-11-02_07h18.55.811,Agingstudy,2020.2.10,Win32,60,,,,,C,,,,,,,,,,,,,,,1,1,0.2837,0,58,58,58,1,1,OLD,OLD,,,,,,,,
,,,,,,,,,,,,,,,,TestWords/WAI_RO_JU.wav,,5ea95ba3b85a0604454c8624,2021-11-02_07h18.55.811,Agingstudy,2020.2.10,Win32,60,,,,,C,,,,,,,,,,,,,,,1,0,1.0793,0,59,59,59,1,2,NEW,NEW,,,,,,,,
,,,,,,,,,,,,,,,,TestWords/KO_SU_FAI.wav,,5ea95ba3b85a0604454c8624,2021-11-02_07h18.55.811,Agingstudy,2020.2.10,Win32,60,,,,,C,,,,,,,,,,,,,,,1,1,1.2532,0,60,60,60,1,1,OLD,OLD,,,,,,,,
,,,,,,,,,,,,,,,,TestWords/DAI_RU_CHI.wav,,5ea95ba3b85a0604454c8624,2021-11-02_07h18.55.811,Agingstudy,2020.2.10,Win32,60,,,,,C,,,,,,,,,,,,,,,2,0,0.7791,0,61,61,61,1,1,OLD,OLD,,,,,,,,
,,,,,,,,,,,,,,,,TestWords/VU_WAI_NA.wav,,5ea95ba3b85a0604454c8624,2021-11-02_07h18.55.811,Agingstudy,2020.2.10,Win32,60,,,,,C,,,,,,,,,,,,,,,2,1,0.7363,0,62,62,62,1,2,NEW,SIMILAR,,,,,,,,
,,,,,,,,,,,,,,,,TestWords/RAY_PA_TI.wav,,5ea95ba3b85a0604454c8624,2021-11-02_07h18.55.811,Agingstudy,2020.2.10,Win32,60,,,,,C,,,,,,,,,,,,,,,1,1,0.528,0,63,63,63,1,1,OLD,OLD,,,,,,,,
,,,,,,,,,,,,,,,,TestWords/KAI_LAY_TA.wav,,5ea95ba3b85a0604454c8624,2021-11-02_07h18.55.811,Agingstudy,2020.2.10,Win32,60,,,,,C,,,,,,,,,,,,,,,1,1,0.2604,0,64,64,64,1,1,OLD,OLD,,,,,,,,
,,,,,,,,,,,,,,,,TestWords/GA_MU_ZI.wav,,5ea95ba3b85a0604454c8624,2021-11-02_07h18.55.811,Agingstudy,2020.2.10,Win32,60,,,,,C,,,,,,,,,,,,,,,1,1,0.2839,0,65,65,65,1,1,OLD,OLD,,,,,,,,
,,,,,,,,,,,,,,,,TestWords/BA_LI_KAY.wav,,5ea95ba3b85a0604454c8624,2021-11-02_07h18.55.811,Agingstudy,2020.2.10,Win32,60,,,,,C,,,,,,,,,,,,,,,1,0,0.5206,0,66,66,66,1,2,NEW,SIMILAR,,,,,,,,
,,,,,,,,,,,,,,,,TestWords/NA_VU_WAI.wav,,5ea95ba3b85a0604454c8624,2021-11-02_07h18.55.811,Agingstudy,2020.2.10,Win32,60,,,,,C,,,,,,,,,,,,,,,1,0,0.8368,0,67,67,67,1,2,NEW,SIMILAR,,,,,,,,
,,,,,,,,,,,,,,,,TestWords/KO_SU_FAI.wav,,5ea95ba3b85a0604454c8624,2021-11-02_07h18.55.811,Agingstudy,2020.2.10,Win32,60,,,,,C,,,,,,,,,,,,,,,1,1,0.6363,0,68,68,68,1,1,OLD,OLD,,,,,,,,
,,,,,,,,,,,,,,,,TestWords/RAI_ZO_FU.wav,,5ea95ba3b85a0604454c8624,2021-11-02_07h18.55.811,Agingstudy,2020.2.10,Win32,60,,,,,C,,,,,,,,,,,,,,,2,1,0.9875,0,69,69,69,1,2,NEW,NEW,,,,,,,,
,,,,,,,,,,,,,,,,TestWords/DAI_RU_CHI.wav,,5ea95ba3b85a0604454c8624,2021-11-02_07h18.55.811,Agingstudy,2020.2.10,Win32,60,,,,,C,,,,,,,,,,,,,,,1,1,0.7346,0,70,70,70,1,1,OLD,OLD,,,,,,,,
,,,,,,,,,,,,,,,,TestWords/RAY_PA_TI.wav,,5ea95ba3b85a0604454c8624,2021-11-02_07h18.55.811,Agingstudy,2020.2.10,Win32,60,,,,,C,,,,,,,,,,,,,,,1,1,0.2396,0,71,71,71,1,1,OLD,OLD,,,,,,,,
,,,,,,,,,,,,,,,,TestWords/LI_KAY_BA.wav,,5ea95ba3b85a0604454c8624,2021-11-02_07h18.55.811,Agingstudy,2020.2.10,Win32,60,,,,,C,,,,,,,,,,,,,,,2,1,0.5575,0,72,72,72,1,2,NEW,SIMILAR,,,,,,,,
,,,,,,,,,,,,,,,,TestWords/KAI_LAY_TA.wav,,5ea95ba3b85a0604454c8624,2021-11-02_07h18.55.811,Agingstudy,2020.2.10,Win32,60,,,,,C,,,,,,,,,,,,,,,1,1,0.2902,0,73,73,73,1,1,OLD,OLD,,,,,,,,
,,,,,,,,,,,,,,,,TestWords/GA_MU_ZI.wav,,5ea95ba3b85a0604454c8624,2021-11-02_07h18.55.811,Agingstudy,2020.2.10,Win32,60,,,,,C,,,,,,,,,,,,,,,1,1,0.9759,0,74,74,74,1,1,OLD,OLD,,,,,,,,
,,,,,,,,,,,,,,,,TestWords/NA_WAI_VU.wav,,5ea95ba3b85a0604454c8624,2021-11-02_07h18.55.811,Agingstudy,2020.2.10,Win32,60,,,,,C,,,,,,,,,,,,,,,2,1,1.2897,0,75,75,75,1,2,NEW,SIMILAR,,,,,,,,
,,,,,,,,,,,,,,,,TestWords/KO_SU_FAI.wav,,5ea95ba3b85a0604454c8624,2021-11-02_07h18.55.811,Agingstudy,2020.2.10,Win32,60,,,,,C,,,,,,,,,,,,,,,1,1,0.9424,0,76,76,76,1,1,OLD,OLD,,,,,,,,
,,,,,,,,,,,,,,,,TestWords/ZO_RAI_FU.wav,,5ea95ba3b85a0604454c8624,2021-11-02_07h18.55.811,Agingstudy,2020.2.10,Win32,60,,,,,C,,,,,,,,,,,,,,,2,1,0.4575,0,77,77,77,1,2,NEW,SIMILAR,,,,,,,,
,,,,,,,,,,,,,,,,TestWords/RAY_PA_TI.wav,,5ea95ba3b85a0604454c8624,2021-11-02_07h18.55.811,Agingstudy,2020.2.10,Win32,60,,,,,C,,,,,,,,,,,,,,,1,1,0.3123,0,78,78,78,1,1,OLD,OLD,,,,,,,,
,,,,,,,,,,,,,,,,TestWords/KAI_LAY_TA.wav,,5ea95ba3b85a0604454c8624,2021-11-02_07h18.55.811,Agingstudy,2020.2.10,Win32,60,,,,,C,,,,,,,,,,,,,,,1,1,0.2373,0,79,79,79,1,1,OLD,OLD,,,,,,,,
,,,,,,,,,,,,,,,,TestWords/GA_MU_ZI.wav,,5ea95ba3b85a0604454c8624,2021-11-02_07h18.55.811,Agingstudy,2020.2.10,Win32,60,,,,,C,,,,,,,,,,,,,,,1,1,0.1728,0,80,80,80,1,1,OLD,OLD,,,,,,,,
,,,,,,,,,,,,,,,,TestWords/DA_CHU_VAI.wav,,5ea95ba3b85a0604454c8624,2021-11-02_07h18.55.811,Agingstudy,2020.2.10,Win32,60,,,,,C,,,,,,,,,,,,,,,2,1,0.8633,0,81,81,81,1,2,NEW,NEW,,,,,,,,
,,,,,,,,,,,,,,,,TestWords/DAI_RU_CHI.wav,,5ea95ba3b85a0604454c8624,2021-11-02_07h18.55.811,Agingstudy,2020.2.10,Win32,60,,,,,C,,,,,,,,,,,,,,,1,1,0.7979,0,82,82,82,1,1,OLD,OLD,,,,,,,,
,,,,,,,,,,,,,,,,TestWords/FU_RAI_ZO.wav,,5ea95ba3b85a0604454c8624,2021-11-02_07h18.55.811,Agingstudy,2020.2.10,Win32,60,,,,,C,,,,,,,,,,,,,,,1,0,1.3109,0,83,83,83,1,2,NEW,SIMILAR,,,,,,,,
,,,,,,,,,,,,,,,,TestWords/KO_SU_FAI.wav,,5ea95ba3b85a0604454c8624,2021-11-02_07h18.55.811,Agingstudy,2020.2.10,Win32,60,,,,,C,,,,,,,,,,,,,,,1,1,0.4352,0,84,84,84,1,1,OLD,OLD,,,,,,,,
,,,,,,,,,,,,,,,,TestWords/RAY_PA_TI.wav,,5ea95ba3b85a0604454c8624,2021-11-02_07h18.55.811,Agingstudy,2020.2.10,Win32,60,,,,,C,,,,,,,,,,,,,,,1,1,0.1943,0,85,85,85,1,1,OLD,OLD,,,,,,,,
,,,,,,,,,,,,,,,,TestWords/DAI_RU_CHI.wav,,5ea95ba3b85a0604454c8624,2021-11-02_07h18.55.811,Agingstudy,2020.2.10,Win32,60,,,,,C,,,,,,,,,,,,,,,1,1,1.4761,0,86,86,86,1,1,OLD,OLD,,,,,,,,
,,,,,,,,,,,,,,,,TestWords/PAI_LU_WA.wav,,5ea95ba3b85a0604454c8624,2021-11-02_07h18.55.811,Agingstudy,2020.2.10,Win32,60,,,,,C,,,,,,,,,,,,,,,2,1,0.9535,0,87,87,87,1,2,NEW,NEW,,,,,,,,
,,,,,,,,,,,,,,,,TestWords/GA_MU_ZI.wav,,5ea95ba3b85a0604454c8624,2021-11-02_07h18.55.811,Agingstudy,2020.2.10,Win32,60,,,,,C,,,,,,,,,,,,,,,1,1,0.452,0,88,88,88,1,1,OLD,OLD,,,,,,,,
,,,,,,,,,,,,,,,,TestWords/FU_ZO_RAI.wav,,5ea95ba3b85a0604454c8624,2021-11-02_07h18.55.811,Agingstudy,2020.2.10,Win32,60,,,,,C,,,,,,,,,,,,,,,2,1,1.7228,0,89,89,89,1,2,NEW,SIMILAR,,,,,,,,
,,,,,,,,,,,,,,,,TestWords/RAY_PA_TI.wav,,5ea95ba3b85a0604454c8624,2021-11-02_07h18.55.811,Agingstudy,2020.2.10,Win32,60,,,,,C,,,,,,,,,,,,,,,1,1,0.2541,0,90,90,90,1,1,OLD,OLD,,,,,,,,
,,,,,,,,,,,,,,,,TestWords/DAI_RU_CHI.wav,,5ea95ba3b85a0604454c8624,2021-11-02_07h18.55.811,Agingstudy,2020.2.10,Win32,60,,,,,C,,,,,,,,,,,,,,,1,1,0.4272,0,91,91,91,1,1,OLD,OLD,,,,,,,,
,,,,,,,,,,,,,,,,TestWords/LA_ZAY_CHAI.wav,,5ea95ba3b85a0604454c8624,2021-11-02_07h18.55.811,Agingstudy,2020.2.10,Win32,60,,,,,C,,,,,,,,,,,,,,,2,1,1.051,0,92,92,92,1,2,NEW,NEW,,,,,,,,
,,,,,,,,,,,,,,,,TestWords/GA_MU_ZI.wav,,5ea95ba3b85a0604454c8624,2021-11-02_07h18.55.811,Agingstudy,2020.2.10,Win32,60,,,,,C,,,,,,,,,,,,,,,1,1,0.2353,0,93,93,93,1,1,OLD,OLD,,,,,,,,
,,,,,,,,,,,,,,,,TestWords/RAI_FU_ZO.wav,,5ea95ba3b85a0604454c8624,2021-11-02_07h18.55.811,Agingstudy,2020.2.10,Win32,60,,,,,C,,,,,,,,,,,,,,,2,1,0.8847,0,94,94,94,1,2,NEW,SIMILAR,,,,,,,,
,,,,,,,,,,,,,,,,TestWords/GU_CHAI_PI.wav,,5ea95ba3b85a0604454c8624,2021-11-02_07h18.55.811,Agingstudy,2020.2.10,Win32,60,,,,,C,,,,,,,,,,,,,,,1,0,2.0946,0,95,95,95,1,2,NEW,NEW,,,,,,,,
,,,,,,,,,,,,,,,,TestWords/HI_NAY_VA.wav,,5ea95ba3b85a0604454c8624,2021-11-02_07h18.55.811,Agingstudy,2020.2.10,Win32,60,,,,,C,,,,,,,,,,,,,,,2,1,0.4263,0,96,96,96,1,2,NEW,NEW,,,,,,,,
,,,,,,,,,,,,,,,,TestWords/GA_MU_ZI.wav,,5ea95ba3b85a0604454c8624,2021-11-02_07h18.55.811,Agingstudy,2020.2.10,Win32,60,,,,,C,,,,,,,,,,,,,,,1,1,1.5565,0,97,97,97,1,1,OLD,OLD,,,,,,,,
,,,,,,,,,,,,,,,,TestWords/SI_VAI_CHU.wav,,5ea95ba3b85a0604454c8624,2021-11-02_07h18.55.811,Agingstudy,2020.2.10,Win32,60,,,,,C,,,,,,,,,,,,,,,2,1,0.8623,0,98,98,98,1,2,NEW,NEW,,,,,,,,
,,,,,,,,,,,,,,,,TestWords/ZO_FU_RAI.wav,,5ea95ba3b85a0604454c8624,2021-11-02_07h18.55.811,Agingstudy,2020.2.10,Win32,60,,,,,C,,,,,,,,,,,,,,,1,0,2.4931,0,99,99,99,1,2,NEW,SIMILAR,,,,,,,,
,,,,,,,,,,,,,,,,,,5ea95ba3b85a0604454c8624,2021-11-02_07h18.55.811,Agingstudy,2020.2.10,Win32,60,,,,,,,,,,,,,,,,,,,,,,,,,,,,,,,0,0,0,0,1,,,
,,,,,,,,,,,,,,,,,,5ea95ba3b85a0604454c8624,2021-11-02_07h18.55.811,Agingstudy,2020.2.10,Win32,60,,,,,,,,,,,,,,,,,,,,,,,,,,,,,,,,,,,,return,6.0905,
