Welcome0Continue.keys,Welcome0Continue.rt,SoundCheckBegin.keys,SoundCheckBegin.rt,SoundCheckEndKey.keys,SoundCheckEndKey.rt,HeadphoneContinueKey.keys,HeadphoneContinueKey.rt,CheckResp.keys,CheckResp.corr,CheckResp.rt,HeadphoneLoop.thisRepN,HeadphoneLoop.thisTrialN,HeadphoneLoop.thisN,HeadphoneLoop.thisIndex,HeadphoneLoop.ran,File,Correct,participant,date,expName,psychopyVersion,OS,frameRate,ContinueKey8.keys,ContinueKey8.rt,MSTWelcomeContKey.keys,MSTWelcomeContKey.rt,Condition,MSTTrainIntroKey.keys,MSTTrainIntroKey.rt,MSTTrainKeys.keys,MSTTrainKeys.corr,MSTTrainKeys.rt,MSTTrainLoop.thisRepN,MSTTrainLoop.thisTrialN,MSTTrainLoop.thisN,MSTTrainLoop.thisIndex,MSTTrainLoop.ran,SoundFile,Type,MSTTestBeginKey.keys,MSTTestBeginKey.rt,MST_resp.keys,MST_resp.corr,MST_resp.rt,MSTPlayLoop.thisRepN,MSTPlayLoop.thisTrialN,MSTPlayLoop.thisN,MSTPlayLoop.thisIndex,MSTPlayLoop.ran,WordCorrect,Correct_type,WordType,MSTLoop.thisRepN,MSTLoop.thisTrialN,MSTLoop.thisN,MSTLoop.thisIndex,MSTLoop.ran,EndAllKey.keys,EndAllKey.rt,FeedbackResp.text
space,4.4167,space,3.5157,space,3.4132,space,10.3331,1,1,6.0165,0,0,0,1,1,Headphone/t1_2.wav,1,5f1c9c4c1ca48b000961faf4,2021-07-14_11h18.39.908,Agingstudy,2020.2.10,MacIntel,60,,,,,,,,,,,,,,,,,,,,,,,,,,,,,,,,,,,,,,
,,,,,,,,1,0,1.1168,0,1,1,4,1,Headphone/t3_1.wav,3,5f1c9c4c1ca48b000961faf4,2021-07-14_11h18.39.908,Agingstudy,2020.2.10,MacIntel,60,,,,,,,,,,,,,,,,,,,,,,,,,,,,,,,,,,,,,,
,,,,,,,,3,0,0.504,0,2,2,3,1,Headphone/t2_2.wav,2,5f1c9c4c1ca48b000961faf4,2021-07-14_11h18.39.908,Agingstudy,2020.2.10,MacIntel,60,,,,,,,,,,,,,,,,,,,,,,,,,,,,,,,,,,,,,,
,,,,,,,,1,0,1.0315,0,3,3,5,1,Headphone/t3_2.wav,3,5f1c9c4c1ca48b000961faf4,2021-07-14_11h18.39.908,Agingstudy,2020.2.10,MacIntel,60,,,,,,,,,,,,,,,,,,,,,,,,,,,,,,,,,,,,,,
,,,,,,,,3,0,1.4155,0,4,4,2,1,Headphone/t2_1.wav,2,5f1c9c4c1ca48b000961faf4,2021-07-14_11h18.39.908,Agingstudy,2020.2.10,MacIntel,60,,,,,,,,,,,,,,,,,,,,,,,,,,,,,,,,,,,,,,
,,,,,,,,2,0,0.6182,0,5,5,0,1,Headphone/t1_1.wav,1,5f1c9c4c1ca48b000961faf4,2021-07-14_11h18.39.908,Agingstudy,2020.2.10,MacIntel,60,,,,,,,,,,,,,,,,,,,,,,,,,,,,,,,,,,,,,,
,,,,,,,,,,,,,,,,,2,5f1c9c4c1ca48b000961faf4,2021-07-14_11h18.39.908,Agingstudy,2020.2.10,MacIntel,60,space,20.8442,space,5.6487,1,space,2.2989,2,1,3.6181,0,0,0,0,1,Training/FO_YI_LAY.wav,NEW,,,,,,,,,,,,,,,,,,,,,
,,,,,,,,,,,,,,,,,1,5f1c9c4c1ca48b000961faf4,2021-07-14_11h18.39.908,Agingstudy,2020.2.10,MacIntel,60,,,,,,,,1,1,3.1987,0,1,1,1,1,Training/FO_YI_LAY.wav,OLD,,,,,,,,,,,,,,,,,,,,,
,,,,,,,,,,,,,,,,,2,5f1c9c4c1ca48b000961faf4,2021-07-14_11h18.39.908,Agingstudy,2020.2.10,MacIntel,60,,,,,,,,2,1,2.0147,0,2,2,2,1,Training/YO_BU_JAY.wav,NEW,,,,,,,,,,,,,,,,,,,,,
,,,,,,,,,,,,,,,,,2,5f1c9c4c1ca48b000961faf4,2021-07-14_11h18.39.908,Agingstudy,2020.2.10,MacIntel,60,,,,,,,,2,1,1.527,0,3,3,3,1,Training/JAY_YO_BU.wav,SIMILAR,,,,,,,,,,,,,,,,,,,,,
,,,,,,,,,,,,,,,,,1,5f1c9c4c1ca48b000961faf4,2021-07-14_11h18.39.908,Agingstudy,2020.2.10,MacIntel,60,,,,,,,,1,1,1.1834,0,4,4,4,1,Training/FO_YI_LAY.wav,OLD,,,,,,,,,,,,,,,,,,,,,
,,,,,,,,,,,,,,,,TestWords/CHU_LA_PAY.wav,,5f1c9c4c1ca48b000961faf4,2021-07-14_11h18.39.908,Agingstudy,2020.2.10,MacIntel,60,,,,,D,,,,,,,,,,,,,space,2.3612,2,1,2.0176,0,0,0,0,1,2,NEW,NEW,,,,,,,,
,,,,,,,,,,,,,,,,TestWords/FI_GU_CHA.wav,,5f1c9c4c1ca48b000961faf4,2021-07-14_11h18.39.908,Agingstudy,2020.2.10,MacIntel,60,,,,,D,,,,,,,,,,,,,,,2,1,0.9499,0,1,1,1,1,2,NEW,NEW,,,,,,,,
,,,,,,,,,,,,,,,,TestWords/RAI_ZO_FU.wav,,5f1c9c4c1ca48b000961faf4,2021-07-14_11h18.39.908,Agingstudy,2020.2.10,MacIntel,60,,,,,D,,,,,,,,,,,,,,,2,1,0.6187,0,2,2,2,1,2,NEW,NEW,,,,,,,,
,,,,,,,,,,,,,,,,TestWords/DAI_RU_CHI.wav,,5f1c9c4c1ca48b000961faf4,2021-07-14_11h18.39.908,Agingstudy,2020.2.10,MacIntel,60,,,,,D,,,,,,,,,,,,,,,2,1,1.5895,0,3,3,3,1,2,NEW,NEW,,,,,,,,
,,,,,,,,,,,,,,,,TestWords/GA_MU_ZI.wav,,5f1c9c4c1ca48b000961faf4,2021-07-14_11h18.39.908,Agingstudy,2020.2.10,MacIntel,60,,,,,D,,,,,,,,,,,,,,,2,1,0.5025,0,4,4,4,1,2,NEW,NEW,,,,,,,,
,,,,,,,,,,,,,,,,TestWords/DA_CHU_VAI.wav,,5f1c9c4c1ca48b000961faf4,2021-07-14_11h18.39.908,Agingstudy,2020.2.10,MacIntel,60,,,,,D,,,,,,,,,,,,,,,1,0,1.0519,0,5,5,5,1,2,NEW,NEW,,,,,,,,
,,,,,,,,,,,,,,,,TestWords/ZO_RAI_FU.wav,,5f1c9c4c1ca48b000961faf4,2021-07-14_11h18.39.908,Agingstudy,2020.2.10,MacIntel,60,,,,,D,,,,,,,,,,,,,,,1,0,1.6241,0,6,6,6,1,2,NEW,SIMILAR,,,,,,,,
,,,,,,,,,,,,,,,,TestWords/BA_KAY_LI.wav,,5f1c9c4c1ca48b000961faf4,2021-07-14_11h18.39.908,Agingstudy,2020.2.10,MacIntel,60,,,,,D,,,,,,,,,,,,,,,2,1,0.4124,0,7,7,7,1,2,NEW,NEW,,,,,,,,
,,,,,,,,,,,,,,,,TestWords/VAI_HO_LA.wav,,5f1c9c4c1ca48b000961faf4,2021-07-14_11h18.39.908,Agingstudy,2020.2.10,MacIntel,60,,,,,D,,,,,,,,,,,,,,,2,1,0.7493,0,8,8,8,1,2,NEW,NEW,,,,,,,,
,,,,,,,,,,,,,,,,TestWords/DAI_RU_CHI.wav,,5f1c9c4c1ca48b000961faf4,2021-07-14_11h18.39.908,Agingstudy,2020.2.10,MacIntel,60,,,,,D,,,,,,,,,,,,,,,1,1,0.6263,0,9,9,9,1,1,OLD,OLD,,,,,,,,
,,,,,,,,,,,,,,,,TestWords/RAY_PA_TI.wav,,5f1c9c4c1ca48b000961faf4,2021-07-14_11h18.39.908,Agingstudy,2020.2.10,MacIntel,60,,,,,D,,,,,,,,,,,,,,,2,1,0.867,0,10,10,10,1,2,NEW,NEW,,,,,,,,
,,,,,,,,,,,,,,,,TestWords/NO_WA_BAY.wav,,5f1c9c4c1ca48b000961faf4,2021-07-14_11h18.39.908,Agingstudy,2020.2.10,MacIntel,60,,,,,D,,,,,,,,,,,,,,,2,1,0.1581,0,11,11,11,1,2,NEW,NEW,,,,,,,,
,,,,,,,,,,,,,,,,TestWords/GA_MU_ZI.wav,,5f1c9c4c1ca48b000961faf4,2021-07-14_11h18.39.908,Agingstudy,2020.2.10,MacIntel,60,,,,,D,,,,,,,,,,,,,,,2,0,2.2171,0,12,12,12,1,1,OLD,OLD,,,,,,,,
,,,,,,,,,,,,,,,,TestWords/WAI_VU_NA.wav,,5f1c9c4c1ca48b000961faf4,2021-07-14_11h18.39.908,Agingstudy,2020.2.10,MacIntel,60,,,,,D,,,,,,,,,,,,,,,1,0,0.4369,0,13,13,13,1,2,NEW,NEW,,,,,,,,
,,,,,,,,,,,,,,,,TestWords/KAY_LI_BA.wav,,5f1c9c4c1ca48b000961faf4,2021-07-14_11h18.39.908,Agingstudy,2020.2.10,MacIntel,60,,,,,D,,,,,,,,,,,,,,,1,0,0.355,0,14,14,14,1,2,NEW,SIMILAR,,,,,,,,
,,,,,,,,,,,,,,,,TestWords/FU_RAI_ZO.wav,,5f1c9c4c1ca48b000961faf4,2021-07-14_11h18.39.908,Agingstudy,2020.2.10,MacIntel,60,,,,,D,,,,,,,,,,,,,,,2,1,1.6175,0,15,15,15,1,2,NEW,SIMILAR,,,,,,,,
,,,,,,,,,,,,,,,,TestWords/KAI_LAY_TA.wav,,5f1c9c4c1ca48b000961faf4,2021-07-14_11h18.39.908,Agingstudy,2020.2.10,MacIntel,60,,,,,D,,,,,,,,,,,,,,,2,1,0.9343,0,16,16,16,1,2,NEW,NEW,,,,,,,,
,,,,,,,,,,,,,,,,TestWords/RAY_PA_TI.wav,,5f1c9c4c1ca48b000961faf4,2021-07-14_11h18.39.908,Agingstudy,2020.2.10,MacIntel,60,,,,,D,,,,,,,,,,,,,,,1,1,1.1493,0,17,17,17,1,1,OLD,OLD,,,,,,,,
,,,,,,,,,,,,,,,,TestWords/DAI_RU_CHI.wav,,5f1c9c4c1ca48b000961faf4,2021-07-14_11h18.39.908,Agingstudy,2020.2.10,MacIntel,60,,,,,D,,,,,,,,,,,,,,,1,1,0.7677,0,18,18,18,1,1,OLD,OLD,,,,,,,,
,,,,,,,,,,,,,,,,TestWords/WAI_NA_VU.wav,,5f1c9c4c1ca48b000961faf4,2021-07-14_11h18.39.908,Agingstudy,2020.2.10,MacIntel,60,,,,,D,,,,,,,,,,,,,,,2,1,0.5665,0,19,19,19,1,2,NEW,SIMILAR,,,,,,,,
,,,,,,,,,,,,,,,,TestWords/GA_MU_ZI.wav,,5f1c9c4c1ca48b000961faf4,2021-07-14_11h18.39.908,Agingstudy,2020.2.10,MacIntel,60,,,,,D,,,,,,,,,,,,,,,2,0,1.8135,0,20,20,20,1,1,OLD,OLD,,,,,,,,
,,,,,,,,,,,,,,,,TestWords/KAY_BA_LI.wav,,5f1c9c4c1ca48b000961faf4,2021-07-14_11h18.39.908,Agingstudy,2020.2.10,MacIntel,60,,,,,D,,,,,,,,,,,,,,,1,0,0.8628,0,21,21,21,1,2,NEW,SIMILAR,,,,,,,,
,,,,,,,,,,,,,,,,TestWords/KAI_LAY_TA.wav,,5f1c9c4c1ca48b000961faf4,2021-07-14_11h18.39.908,Agingstudy,2020.2.10,MacIntel,60,,,,,D,,,,,,,,,,,,,,,1,1,1.0711,0,22,22,22,1,1,OLD,OLD,,,,,,,,
,,,,,,,,,,,,,,,,TestWords/FU_ZO_RAI.wav,,5f1c9c4c1ca48b000961faf4,2021-07-14_11h18.39.908,Agingstudy,2020.2.10,MacIntel,60,,,,,D,,,,,,,,,,,,,,,1,0,0.6296,0,23,23,23,1,2,NEW,SIMILAR,,,,,,,,
,,,,,,,,,,,,,,,,TestWords/RAY_PA_TI.wav,,5f1c9c4c1ca48b000961faf4,2021-07-14_11h18.39.908,Agingstudy,2020.2.10,MacIntel,60,,,,,D,,,,,,,,,,,,,,,1,1,0.9193,0,24,24,24,1,1,OLD,OLD,,,,,,,,
,,,,,,,,,,,,,,,,TestWords/DAI_RU_CHI.wav,,5f1c9c4c1ca48b000961faf4,2021-07-14_11h18.39.908,Agingstudy,2020.2.10,MacIntel,60,,,,,D,,,,,,,,,,,,,,,1,1,0.4989,0,25,25,25,1,1,OLD,OLD,,,,,,,,
,,,,,,,,,,,,,,,,TestWords/VU_NA_WAI.wav,,5f1c9c4c1ca48b000961faf4,2021-07-14_11h18.39.908,Agingstudy,2020.2.10,MacIntel,60,,,,,D,,,,,,,,,,,,,,,2,1,0.4901,0,26,26,26,1,2,NEW,SIMILAR,,,,,,,,
,,,,,,,,,,,,,,,,TestWords/RAI_FU_ZO.wav,,5f1c9c4c1ca48b000961faf4,2021-07-14_11h18.39.908,Agingstudy,2020.2.10,MacIntel,60,,,,,D,,,,,,,,,,,,,,,1,0,0.9179,0,27,27,27,1,2,NEW,SIMILAR,,,,,,,,
,,,,,,,,,,,,,,,,TestWords/GA_MU_ZI.wav,,5f1c9c4c1ca48b000961faf4,2021-07-14_11h18.39.908,Agingstudy,2020.2.10,MacIntel,60,,,,,D,,,,,,,,,,,,,,,1,1,0.801,0,28,28,28,1,1,OLD,OLD,,,,,,,,
,,,,,,,,,,,,,,,,TestWords/LI_BA_KAY.wav,,5f1c9c4c1ca48b000961faf4,2021-07-14_11h18.39.908,Agingstudy,2020.2.10,MacIntel,60,,,,,D,,,,,,,,,,,,,,,1,0,1.2326,0,29,29,29,1,2,NEW,SIMILAR,,,,,,,,
,,,,,,,,,,,,,,,,TestWords/KAI_LAY_TA.wav,,5f1c9c4c1ca48b000961faf4,2021-07-14_11h18.39.908,Agingstudy,2020.2.10,MacIntel,60,,,,,D,,,,,,,,,,,,,,,2,0,1.105,0,30,30,30,1,1,OLD,OLD,,,,,,,,
,,,,,,,,,,,,,,,,TestWords/RAY_PA_TI.wav,,5f1c9c4c1ca48b000961faf4,2021-07-14_11h18.39.908,Agingstudy,2020.2.10,MacIntel,60,,,,,D,,,,,,,,,,,,,,,1,1,0.9696,0,31,31,31,1,1,OLD,OLD,,,,,,,,
,,,,,,,,,,,,,,,,TestWords/VU_WAI_NA.wav,,5f1c9c4c1ca48b000961faf4,2021-07-14_11h18.39.908,Agingstudy,2020.2.10,MacIntel,60,,,,,D,,,,,,,,,,,,,,,2,1,1.0496,0,32,32,32,1,2,NEW,SIMILAR,,,,,,,,
,,,,,,,,,,,,,,,,TestWords/DAI_RU_CHI.wav,,5f1c9c4c1ca48b000961faf4,2021-07-14_11h18.39.908,Agingstudy,2020.2.10,MacIntel,60,,,,,D,,,,,,,,,,,,,,,1,1,0.5813,0,33,33,33,1,1,OLD,OLD,,,,,,,,
,,,,,,,,,,,,,,,,TestWords/ZO_FU_RAI.wav,,5f1c9c4c1ca48b000961faf4,2021-07-14_11h18.39.908,Agingstudy,2020.2.10,MacIntel,60,,,,,D,,,,,,,,,,,,,,,2,1,2.4397,0,34,34,34,1,2,NEW,SIMILAR,,,,,,,,
,,,,,,,,,,,,,,,,TestWords/BA_LI_KAY.wav,,5f1c9c4c1ca48b000961faf4,2021-07-14_11h18.39.908,Agingstudy,2020.2.10,MacIntel,60,,,,,D,,,,,,,,,,,,,,,2,1,3.1306,0,35,35,35,1,2,NEW,SIMILAR,,,,,,,,
,,,,,,,,,,,,,,,,TestWords/KO_SU_FAI.wav,,5f1c9c4c1ca48b000961faf4,2021-07-14_11h18.39.908,Agingstudy,2020.2.10,MacIntel,60,,,,,D,,,,,,,,,,,,,,,2,1,0.5125,0,36,36,36,1,2,NEW,NEW,,,,,,,,
,,,,,,,,,,,,,,,,TestWords/KAI_LAY_TA.wav,,5f1c9c4c1ca48b000961faf4,2021-07-14_11h18.39.908,Agingstudy,2020.2.10,MacIntel,60,,,,,D,,,,,,,,,,,,,,,1,1,0.771,0,37,37,37,1,1,OLD,OLD,,,,,,,,
,,,,,,,,,,,,,,,,TestWords/RAY_PA_TI.wav,,5f1c9c4c1ca48b000961faf4,2021-07-14_11h18.39.908,Agingstudy,2020.2.10,MacIntel,60,,,,,D,,,,,,,,,,,,,,,1,1,0.8381,0,38,38,38,1,1,OLD,OLD,,,,,,,,
,,,,,,,,,,,,,,,,TestWords/GA_MU_ZI.wav,,5f1c9c4c1ca48b000961faf4,2021-07-14_11h18.39.908,Agingstudy,2020.2.10,MacIntel,60,,,,,D,,,,,,,,,,,,,,,2,0,4.1755,0,39,39,39,1,1,OLD,OLD,,,,,,,,
,,,,,,,,,,,,,,,,TestWords/NA_VU_WAI.wav,,5f1c9c4c1ca48b000961faf4,2021-07-14_11h18.39.908,Agingstudy,2020.2.10,MacIntel,60,,,,,D,,,,,,,,,,,,,,,2,1,0.4476,0,40,40,40,1,2,NEW,SIMILAR,,,,,,,,
,,,,,,,,,,,,,,,,TestWords/DAI_RU_CHI.wav,,5f1c9c4c1ca48b000961faf4,2021-07-14_11h18.39.908,Agingstudy,2020.2.10,MacIntel,60,,,,,D,,,,,,,,,,,,,,,1,1,0.7847,0,41,41,41,1,1,OLD,OLD,,,,,,,,
,,,,,,,,,,,,,,,,TestWords/KO_SU_FAI.wav,,5f1c9c4c1ca48b000961faf4,2021-07-14_11h18.39.908,Agingstudy,2020.2.10,MacIntel,60,,,,,D,,,,,,,,,,,,,,,2,0,1.038,0,42,42,42,1,1,OLD,OLD,,,,,,,,
,,,,,,,,,,,,,,,,TestWords/NA_WAI_VU.wav,,5f1c9c4c1ca48b000961faf4,2021-07-14_11h18.39.908,Agingstudy,2020.2.10,MacIntel,60,,,,,D,,,,,,,,,,,,,,,2,1,1.6014,0,43,43,43,1,2,NEW,SIMILAR,,,,,,,,
,,,,,,,,,,,,,,,,TestWords/KAI_LAY_TA.wav,,5f1c9c4c1ca48b000961faf4,2021-07-14_11h18.39.908,Agingstudy,2020.2.10,MacIntel,60,,,,,D,,,,,,,,,,,,,,,1,1,0.8742,0,44,44,44,1,1,OLD,OLD,,,,,,,,
,,,,,,,,,,,,,,,,TestWords/SI_VAI_CHU.wav,,5f1c9c4c1ca48b000961faf4,2021-07-14_11h18.39.908,Agingstudy,2020.2.10,MacIntel,60,,,,,D,,,,,,,,,,,,,,,2,1,0.905,0,45,45,45,1,2,NEW,NEW,,,,,,,,
,,,,,,,,,,,,,,,,TestWords/RAY_PA_TI.wav,,5f1c9c4c1ca48b000961faf4,2021-07-14_11h18.39.908,Agingstudy,2020.2.10,MacIntel,60,,,,,D,,,,,,,,,,,,,,,1,1,0.3515,0,46,46,46,1,1,OLD,OLD,,,,,,,,
,,,,,,,,,,,,,,,,TestWords/GA_MU_ZI.wav,,5f1c9c4c1ca48b000961faf4,2021-07-14_11h18.39.908,Agingstudy,2020.2.10,MacIntel,60,,,,,D,,,,,,,,,,,,,,,1,1,0.6554,0,47,47,47,1,1,OLD,OLD,,,,,,,,
,,,,,,,,,,,,,,,,TestWords/LI_KAY_BA.wav,,5f1c9c4c1ca48b000961faf4,2021-07-14_11h18.39.908,Agingstudy,2020.2.10,MacIntel,60,,,,,D,,,,,,,,,,,,,,,1,0,0.5879,0,48,48,48,1,2,NEW,SIMILAR,,,,,,,,
,,,,,,,,,,,,,,,,TestWords/KO_SU_FAI.wav,,5f1c9c4c1ca48b000961faf4,2021-07-14_11h18.39.908,Agingstudy,2020.2.10,MacIntel,60,,,,,D,,,,,,,,,,,,,,,2,0,0.6093,0,49,49,49,1,1,OLD,OLD,,,,,,,,
,,,,,,,,,,,,,,,,TestWords/DAI_RU_CHI.wav,,5f1c9c4c1ca48b000961faf4,2021-07-14_11h18.39.908,Agingstudy,2020.2.10,MacIntel,60,,,,,D,,,,,,,,,,,,,,,1,1,0.8802,0,50,50,50,1,1,OLD,OLD,,,,,,,,
,,,,,,,,,,,,,,,,TestWords/DAY_PU_MO.wav,,5f1c9c4c1ca48b000961faf4,2021-07-14_11h18.39.908,Agingstudy,2020.2.10,MacIntel,60,,,,,D,,,,,,,,,,,,,,,2,1,1.8995,0,51,51,51,1,2,NEW,NEW,,,,,,,,
,,,,,,,,,,,,,,,,TestWords/KAI_LAY_TA.wav,,5f1c9c4c1ca48b000961faf4,2021-07-14_11h18.39.908,Agingstudy,2020.2.10,MacIntel,60,,,,,D,,,,,,,,,,,,,,,1,1,0.3695,0,52,52,52,1,1,OLD,OLD,,,,,,,,
,,,,,,,,,,,,,,,,TestWords/LU_HAI_BO.wav,,5f1c9c4c1ca48b000961faf4,2021-07-14_11h18.39.908,Agingstudy,2020.2.10,MacIntel,60,,,,,D,,,,,,,,,,,,,,,2,1,0.668,0,53,53,53,1,2,NEW,NEW,,,,,,,,
,,,,,,,,,,,,,,,,TestWords/RAY_PA_TI.wav,,5f1c9c4c1ca48b000961faf4,2021-07-14_11h18.39.908,Agingstudy,2020.2.10,MacIntel,60,,,,,D,,,,,,,,,,,,,,,1,1,0.855,0,54,54,54,1,1,OLD,OLD,,,,,,,,
,,,,,,,,,,,,,,,,TestWords/GA_MU_ZI.wav,,5f1c9c4c1ca48b000961faf4,2021-07-14_11h18.39.908,Agingstudy,2020.2.10,MacIntel,60,,,,,D,,,,,,,,,,,,,,,1,1,1.0892,0,55,55,55,1,1,OLD,OLD,,,,,,,,
,,,,,,,,,,,,,,,,TestWords/KO_SU_FAI.wav,,5f1c9c4c1ca48b000961faf4,2021-07-14_11h18.39.908,Agingstudy,2020.2.10,MacIntel,60,,,,,D,,,,,,,,,,,,,,,2,0,0.4562,0,56,56,56,1,1,OLD,OLD,,,,,,,,
,,,,,,,,,,,,,,,,TestWords/TAI_SA_GI.wav,,5f1c9c4c1ca48b000961faf4,2021-07-14_11h18.39.908,Agingstudy,2020.2.10,MacIntel,60,,,,,D,,,,,,,,,,,,,,,2,1,4.5051,0,57,57,57,1,2,NEW,NEW,,,,,,,,
,,,,,,,,,,,,,,,,TestWords/DAY_MO_PU.wav,,5f1c9c4c1ca48b000961faf4,2021-07-14_11h18.39.908,Agingstudy,2020.2.10,MacIntel,60,,,,,D,,,,,,,,,,,,,,,2,1,0.7337,0,58,58,58,1,2,NEW,SIMILAR,,,,,,,,
,,,,,,,,,,,,,,,,TestWords/DAI_RU_CHI.wav,,5f1c9c4c1ca48b000961faf4,2021-07-14_11h18.39.908,Agingstudy,2020.2.10,MacIntel,60,,,,,D,,,,,,,,,,,,,,,1,1,1.6171,0,59,59,59,1,1,OLD,OLD,,,,,,,,
,,,,,,,,,,,,,,,,TestWords/KAI_LAY_TA.wav,,5f1c9c4c1ca48b000961faf4,2021-07-14_11h18.39.908,Agingstudy,2020.2.10,MacIntel,60,,,,,D,,,,,,,,,,,,,,,1,1,0.8962,0,60,60,60,1,1,OLD,OLD,,,,,,,,
,,,,,,,,,,,,,,,,TestWords/LA_ZAY_CHAI.wav,,5f1c9c4c1ca48b000961faf4,2021-07-14_11h18.39.908,Agingstudy,2020.2.10,MacIntel,60,,,,,D,,,,,,,,,,,,,,,2,1,3.3356,0,61,61,61,1,2,NEW,NEW,,,,,,,,
,,,,,,,,,,,,,,,,TestWords/RAY_PA_TI.wav,,5f1c9c4c1ca48b000961faf4,2021-07-14_11h18.39.908,Agingstudy,2020.2.10,MacIntel,60,,,,,D,,,,,,,,,,,,,,,1,1,0.6677,0,62,62,62,1,1,OLD,OLD,,,,,,,,
,,,,,,,,,,,,,,,,TestWords/KO_SU_FAI.wav,,5f1c9c4c1ca48b000961faf4,2021-07-14_11h18.39.908,Agingstudy,2020.2.10,MacIntel,60,,,,,D,,,,,,,,,,,,,,,1,1,1.3086,0,63,63,63,1,1,OLD,OLD,,,,,,,,
,,,,,,,,,,,,,,,,TestWords/GA_MU_ZI.wav,,5f1c9c4c1ca48b000961faf4,2021-07-14_11h18.39.908,Agingstudy,2020.2.10,MacIntel,60,,,,,D,,,,,,,,,,,,,,,1,1,0.7881,0,64,64,64,1,1,OLD,OLD,,,,,,,,
,,,,,,,,,,,,,,,,TestWords/GI_TAI_SA.wav,,5f1c9c4c1ca48b000961faf4,2021-07-14_11h18.39.908,Agingstudy,2020.2.10,MacIntel,60,,,,,D,,,,,,,,,,,,,,,2,1,0.8197,0,65,65,65,1,2,NEW,SIMILAR,,,,,,,,
,,,,,,,,,,,,,,,,TestWords/MO_DAY_PU.wav,,5f1c9c4c1ca48b000961faf4,2021-07-14_11h18.39.908,Agingstudy,2020.2.10,MacIntel,60,,,,,D,,,,,,,,,,,,,,,2,1,0.6507,0,66,66,66,1,2,NEW,SIMILAR,,,,,,,,
,,,,,,,,,,,,,,,,TestWords/KAI_LAY_TA.wav,,5f1c9c4c1ca48b000961faf4,2021-07-14_11h18.39.908,Agingstudy,2020.2.10,MacIntel,60,,,,,D,,,,,,,,,,,,,,,1,1,0.3333,0,67,67,67,1,1,OLD,OLD,,,,,,,,
,,,,,,,,,,,,,,,,TestWords/KO_SU_FAI.wav,,5f1c9c4c1ca48b000961faf4,2021-07-14_11h18.39.908,Agingstudy,2020.2.10,MacIntel,60,,,,,D,,,,,,,,,,,,,,,1,1,0.29,0,68,68,68,1,1,OLD,OLD,,,,,,,,
,,,,,,,,,,,,,,,,TestWords/RAY_PA_TI.wav,,5f1c9c4c1ca48b000961faf4,2021-07-14_11h18.39.908,Agingstudy,2020.2.10,MacIntel,60,,,,,D,,,,,,,,,,,,,,,1,1,0.9959,0,69,69,69,1,1,OLD,OLD,,,,,,,,
,,,,,,,,,,,,,,,,TestWords/NU_CHAY_SO.wav,,5f1c9c4c1ca48b000961faf4,2021-07-14_11h18.39.908,Agingstudy,2020.2.10,MacIntel,60,,,,,D,,,,,,,,,,,,,,,1,0,0.9047,0,70,70,70,1,2,NEW,NEW,,,,,,,,
,,,,,,,,,,,,,,,,TestWords/GA_MU_ZI.wav,,5f1c9c4c1ca48b000961faf4,2021-07-14_11h18.39.908,Agingstudy,2020.2.10,MacIntel,60,,,,,D,,,,,,,,,,,,,,,1,1,0.5855,0,71,71,71,1,1,OLD,OLD,,,,,,,,
,,,,,,,,,,,,,,,,TestWords/DAI_RU_CHI.wav,,5f1c9c4c1ca48b000961faf4,2021-07-14_11h18.39.908,Agingstudy,2020.2.10,MacIntel,60,,,,,D,,,,,,,,,,,,,,,1,1,0.5175,0,72,72,72,1,1,OLD,OLD,,,,,,,,
,,,,,,,,,,,,,,,,TestWords/SA_TAI_GI.wav,,5f1c9c4c1ca48b000961faf4,2021-07-14_11h18.39.908,Agingstudy,2020.2.10,MacIntel,60,,,,,D,,,,,,,,,,,,,,,1,0,0.4671,0,73,73,73,1,2,NEW,SIMILAR,,,,,,,,
,,,,,,,,,,,,,,,,TestWords/PU_DAY_MO.wav,,5f1c9c4c1ca48b000961faf4,2021-07-14_11h18.39.908,Agingstudy,2020.2.10,MacIntel,60,,,,,D,,,,,,,,,,,,,,,2,1,0.5939,0,74,74,74,1,2,NEW,SIMILAR,,,,,,,,
,,,,,,,,,,,,,,,,TestWords/KO_SU_FAI.wav,,5f1c9c4c1ca48b000961faf4,2021-07-14_11h18.39.908,Agingstudy,2020.2.10,MacIntel,60,,,,,D,,,,,,,,,,,,,,,1,1,0.8175,0,75,75,75,1,1,OLD,OLD,,,,,,,,
,,,,,,,,,,,,,,,,TestWords/KAI_LAY_TA.wav,,5f1c9c4c1ca48b000961faf4,2021-07-14_11h18.39.908,Agingstudy,2020.2.10,MacIntel,60,,,,,D,,,,,,,,,,,,,,,1,1,0.4552,0,76,76,76,1,1,OLD,OLD,,,,,,,,
,,,,,,,,,,,,,,,,TestWords/HA_SI_JAI.wav,,5f1c9c4c1ca48b000961faf4,2021-07-14_11h18.39.908,Agingstudy,2020.2.10,MacIntel,60,,,,,D,,,,,,,,,,,,,,,2,1,1.1232,0,77,77,77,1,2,NEW,NEW,,,,,,,,
,,,,,,,,,,,,,,,,TestWords/RAY_PA_TI.wav,,5f1c9c4c1ca48b000961faf4,2021-07-14_11h18.39.908,Agingstudy,2020.2.10,MacIntel,60,,,,,D,,,,,,,,,,,,,,,1,1,1.4355,0,78,78,78,1,1,OLD,OLD,,,,,,,,
,,,,,,,,,,,,,,,,TestWords/DAI_RU_CHI.wav,,5f1c9c4c1ca48b000961faf4,2021-07-14_11h18.39.908,Agingstudy,2020.2.10,MacIntel,60,,,,,D,,,,,,,,,,,,,,,1,1,0.4647,0,79,79,79,1,1,OLD,OLD,,,,,,,,
,,,,,,,,,,,,,,,,TestWords/GA_MU_ZI.wav,,5f1c9c4c1ca48b000961faf4,2021-07-14_11h18.39.908,Agingstudy,2020.2.10,MacIntel,60,,,,,D,,,,,,,,,,,,,,,1,1,2.5067,0,80,80,80,1,1,OLD,OLD,,,,,,,,
,,,,,,,,,,,,,,,,TestWords/SA_GI_TAI.wav,,5f1c9c4c1ca48b000961faf4,2021-07-14_11h18.39.908,Agingstudy,2020.2.10,MacIntel,60,,,,,D,,,,,,,,,,,,,,,1,0,2.8052,0,81,81,81,1,2,NEW,SIMILAR,,,,,,,,
,,,,,,,,,,,,,,,,TestWords/KO_SU_FAI.wav,,5f1c9c4c1ca48b000961faf4,2021-07-14_11h18.39.908,Agingstudy,2020.2.10,MacIntel,60,,,,,D,,,,,,,,,,,,,,,1,1,0.634,0,82,82,82,1,1,OLD,OLD,,,,,,,,
,,,,,,,,,,,,,,,,TestWords/KAI_LAY_TA.wav,,5f1c9c4c1ca48b000961faf4,2021-07-14_11h18.39.908,Agingstudy,2020.2.10,MacIntel,60,,,,,D,,,,,,,,,,,,,,,1,1,0.8343,0,83,83,83,1,1,OLD,OLD,,,,,,,,
,,,,,,,,,,,,,,,,TestWords/PU_MO_DAY.wav,,5f1c9c4c1ca48b000961faf4,2021-07-14_11h18.39.908,Agingstudy,2020.2.10,MacIntel,60,,,,,D,,,,,,,,,,,,,,,2,1,0.9055,0,84,84,84,1,2,NEW,SIMILAR,,,,,,,,
,,,,,,,,,,,,,,,,TestWords/RAY_PA_TI.wav,,5f1c9c4c1ca48b000961faf4,2021-07-14_11h18.39.908,Agingstudy,2020.2.10,MacIntel,60,,,,,D,,,,,,,,,,,,,,,1,1,0.6847,0,85,85,85,1,1,OLD,OLD,,,,,,,,
,,,,,,,,,,,,,,,,TestWords/HI_NAY_VA.wav,,5f1c9c4c1ca48b000961faf4,2021-07-14_11h18.39.908,Agingstudy,2020.2.10,MacIntel,60,,,,,D,,,,,,,,,,,,,,,2,1,0.8798,0,86,86,86,1,2,NEW,NEW,,,,,,,,
,,,,,,,,,,,,,,,,TestWords/DAI_RU_CHI.wav,,5f1c9c4c1ca48b000961faf4,2021-07-14_11h18.39.908,Agingstudy,2020.2.10,MacIntel,60,,,,,D,,,,,,,,,,,,,,,1,1,0.6668,0,87,87,87,1,1,OLD,OLD,,,,,,,,
,,,,,,,,,,,,,,,,TestWords/TAI_GI_SA.wav,,5f1c9c4c1ca48b000961faf4,2021-07-14_11h18.39.908,Agingstudy,2020.2.10,MacIntel,60,,,,,D,,,,,,,,,,,,,,,2,1,0.9473,0,88,88,88,1,2,NEW,SIMILAR,,,,,,,,
,,,,,,,,,,,,,,,,TestWords/KO_SU_FAI.wav,,5f1c9c4c1ca48b000961faf4,2021-07-14_11h18.39.908,Agingstudy,2020.2.10,MacIntel,60,,,,,D,,,,,,,,,,,,,,,1,1,1.3871,0,89,89,89,1,1,OLD,OLD,,,,,,,,
,,,,,,,,,,,,,,,,TestWords/GA_MU_ZI.wav,,5f1c9c4c1ca48b000961faf4,2021-07-14_11h18.39.908,Agingstudy,2020.2.10,MacIntel,60,,,,,D,,,,,,,,,,,,,,,1,1,0.322,0,90,90,90,1,1,OLD,OLD,,,,,,,,
,,,,,,,,,,,,,,,,TestWords/PAI_LU_WA.wav,,5f1c9c4c1ca48b000961faf4,2021-07-14_11h18.39.908,Agingstudy,2020.2.10,MacIntel,60,,,,,D,,,,,,,,,,,,,,,2,1,2.8082,0,91,91,91,1,2,NEW,NEW,,,,,,,,
,,,,,,,,,,,,,,,,TestWords/KAI_LAY_TA.wav,,5f1c9c4c1ca48b000961faf4,2021-07-14_11h18.39.908,Agingstudy,2020.2.10,MacIntel,60,,,,,D,,,,,,,,,,,,,,,1,1,0.9346,0,92,92,92,1,1,OLD,OLD,,,,,,,,
,,,,,,,,,,,,,,,,TestWords/MO_PU_DAY.wav,,5f1c9c4c1ca48b000961faf4,2021-07-14_11h18.39.908,Agingstudy,2020.2.10,MacIntel,60,,,,,D,,,,,,,,,,,,,,,2,1,0.9301,0,93,93,93,1,2,NEW,SIMILAR,,,,,,,,
,,,,,,,,,,,,,,,,TestWords/KO_SU_FAI.wav,,5f1c9c4c1ca48b000961faf4,2021-07-14_11h18.39.908,Agingstudy,2020.2.10,MacIntel,60,,,,,D,,,,,,,,,,,,,,,1,1,5.497,0,94,94,94,1,1,OLD,OLD,,,,,,,,
,,,,,,,,,,,,,,,,TestWords/GI_SA_TAI.wav,,5f1c9c4c1ca48b000961faf4,2021-07-14_11h18.39.908,Agingstudy,2020.2.10,MacIntel,60,,,,,D,,,,,,,,,,,,,,,2,1,1.9354,0,95,95,95,1,2,NEW,SIMILAR,,,,,,,,
,,,,,,,,,,,,,,,,TestWords/HO_NAY_VA.wav,,5f1c9c4c1ca48b000961faf4,2021-07-14_11h18.39.908,Agingstudy,2020.2.10,MacIntel,60,,,,,D,,,,,,,,,,,,,,,2,1,0.6678,0,96,96,96,1,2,NEW,NEW,,,,,,,,
,,,,,,,,,,,,,,,,TestWords/GU_CHAI_PI.wav,,5f1c9c4c1ca48b000961faf4,2021-07-14_11h18.39.908,Agingstudy,2020.2.10,MacIntel,60,,,,,D,,,,,,,,,,,,,,,2,1,0.8555,0,97,97,97,1,2,NEW,NEW,,,,,,,,
,,,,,,,,,,,,,,,,TestWords/KO_SU_FAI.wav,,5f1c9c4c1ca48b000961faf4,2021-07-14_11h18.39.908,Agingstudy,2020.2.10,MacIntel,60,,,,,D,,,,,,,,,,,,,,,1,1,0.3009,0,98,98,98,1,1,OLD,OLD,,,,,,,,
,,,,,,,,,,,,,,,,TestWords/WAI_RO_JU.wav,,5f1c9c4c1ca48b000961faf4,2021-07-14_11h18.39.908,Agingstudy,2020.2.10,MacIntel,60,,,,,D,,,,,,,,,,,,,,,2,1,0.5513,0,99,99,99,1,2,NEW,NEW,,,,,,,,
,,,,,,,,,,,,,,,,,,5f1c9c4c1ca48b000961faf4,2021-07-14_11h18.39.908,Agingstudy,2020.2.10,MacIntel,60,,,,,,,,,,,,,,,,,,,,,,,,,,,,,,,0,0,0,0,1,,,
,,,,,,,,,,,,,,,,,,5f1c9c4c1ca48b000961faf4,2021-07-14_11h18.39.908,Agingstudy,2020.2.10,MacIntel,60,,,,,,,,,,,,,,,,,,,,,,,,,,,,,,,,,,,,return,9.1315,
