Welcome0Continue.keys,Welcome0Continue.rt,SoundCheckBegin.keys,SoundCheckBegin.rt,SoundCheckEndKey.keys,SoundCheckEndKey.rt,HeadphoneContinueKey.keys,HeadphoneContinueKey.rt,CheckResp.keys,CheckResp.corr,CheckResp.rt,HeadphoneLoop.thisRepN,HeadphoneLoop.thisTrialN,HeadphoneLoop.thisN,HeadphoneLoop.thisIndex,HeadphoneLoop.ran,File,Correct,participant,date,expName,psychopyVersion,OS,frameRate,ContinueKey8.keys,ContinueKey8.rt,MSTWelcomeContKey.keys,MSTWelcomeContKey.rt,Condition,MSTTrainIntroKey.keys,MSTTrainIntroKey.rt,MSTTrainKeys.keys,MSTTrainKeys.corr,MSTTrainKeys.rt,MSTTrainLoop.thisRepN,MSTTrainLoop.thisTrialN,MSTTrainLoop.thisN,MSTTrainLoop.thisIndex,MSTTrainLoop.ran,SoundFile,Type,MSTTestBeginKey.keys,MSTTestBeginKey.rt,MST_resp.keys,MST_resp.corr,MST_resp.rt,MSTPlayLoop.thisRepN,MSTPlayLoop.thisTrialN,MSTPlayLoop.thisN,MSTPlayLoop.thisIndex,MSTPlayLoop.ran,WordCorrect,Correct_type,WordType,MSTLoop.thisRepN,MSTLoop.thisTrialN,MSTLoop.thisN,MSTLoop.thisIndex,MSTLoop.ran,EndAllKey.keys,EndAllKey.rt,FeedbackResp.text
space,133.4339,space,0.2165,space,7.7843,space,12.6598,2,1,3.5393,0,0,0,3,1,Headphone/t2_2.wav,2,5f607efeea3f070107273203,2021-07-12_17h09.42.077,Agingstudy,2020.2.10,Win32,60,,,,,,,,,,,,,,,,,,,,,,,,,,,,,,,,,,,,,,
,,,,,,,,1,1,1.4161,0,1,1,0,1,Headphone/t1_1.wav,1,5f607efeea3f070107273203,2021-07-12_17h09.42.077,Agingstudy,2020.2.10,Win32,60,,,,,,,,,,,,,,,,,,,,,,,,,,,,,,,,,,,,,,
,,,,,,,,3,1,1.0482,0,2,2,5,1,Headphone/t3_2.wav,3,5f607efeea3f070107273203,2021-07-12_17h09.42.077,Agingstudy,2020.2.10,Win32,60,,,,,,,,,,,,,,,,,,,,,,,,,,,,,,,,,,,,,,
,,,,,,,,1,1,1.1819,0,3,3,1,1,Headphone/t1_2.wav,1,5f607efeea3f070107273203,2021-07-12_17h09.42.077,Agingstudy,2020.2.10,Win32,60,,,,,,,,,,,,,,,,,,,,,,,,,,,,,,,,,,,,,,
,,,,,,,,2,1,1.2288,0,4,4,2,1,Headphone/t2_1.wav,2,5f607efeea3f070107273203,2021-07-12_17h09.42.077,Agingstudy,2020.2.10,Win32,60,,,,,,,,,,,,,,,,,,,,,,,,,,,,,,,,,,,,,,
,,,,,,,,3,1,1.2962,0,5,5,4,1,Headphone/t3_1.wav,3,5f607efeea3f070107273203,2021-07-12_17h09.42.077,Agingstudy,2020.2.10,Win32,60,,,,,,,,,,,,,,,,,,,,,,,,,,,,,,,,,,,,,,
,,,,,,,,,,,,,,,,,2,5f607efeea3f070107273203,2021-07-12_17h09.42.077,Agingstudy,2020.2.10,Win32,60,space,26.8148,space,10.8632,1,space,7.1138,2,1,8.2516,0,0,0,0,1,Training/FO_YI_LAY.wav,NEW,,,,,,,,,,,,,,,,,,,,,
,,,,,,,,,,,,,,,,,1,5f607efeea3f070107273203,2021-07-12_17h09.42.077,Agingstudy,2020.2.10,Win32,60,,,,,,,,2,0,3.3298,0,1,1,1,1,Training/FO_YI_LAY.wav,OLD,,,,,,,,,,,,,,,,,,,,,
,,,,,,,,,,,,,,,,,2,5f607efeea3f070107273203,2021-07-12_17h09.42.077,Agingstudy,2020.2.10,Win32,60,,,,,,,,2,1,1.4399,0,2,2,2,1,Training/YO_BU_JAY.wav,NEW,,,,,,,,,,,,,,,,,,,,,
,,,,,,,,,,,,,,,,,2,5f607efeea3f070107273203,2021-07-12_17h09.42.077,Agingstudy,2020.2.10,Win32,60,,,,,,,,2,1,1.0654,0,3,3,3,1,Training/JAY_YO_BU.wav,SIMILAR,,,,,,,,,,,,,,,,,,,,,
,,,,,,,,,,,,,,,,,1,5f607efeea3f070107273203,2021-07-12_17h09.42.077,Agingstudy,2020.2.10,Win32,60,,,,,,,,2,0,1.1984,0,4,4,4,1,Training/FO_YI_LAY.wav,OLD,,,,,,,,,,,,,,,,,,,,,
,,,,,,,,,,,,,,,,TestWords/HO_NAY_VA.wav,,5f607efeea3f070107273203,2021-07-12_17h09.42.077,Agingstudy,2020.2.10,Win32,60,,,,,E,,,,,,,,,,,,,space,11.5017,2,1,1.1335,0,0,0,0,1,2,NEW,NEW,,,,,,,,
,,,,,,,,,,,,,,,,TestWords/LU_HAI_BO.wav,,5f607efeea3f070107273203,2021-07-12_17h09.42.077,Agingstudy,2020.2.10,Win32,60,,,,,E,,,,,,,,,,,,,,,2,1,0.5668,0,1,1,1,1,2,NEW,NEW,,,,,,,,
,,,,,,,,,,,,,,,,TestWords/GA_MU_ZI.wav,,5f607efeea3f070107273203,2021-07-12_17h09.42.077,Agingstudy,2020.2.10,Win32,60,,,,,E,,,,,,,,,,,,,,,2,1,0.459,0,2,2,2,1,2,NEW,NEW,,,,,,,,
,,,,,,,,,,,,,,,,TestWords/BA_KAY_LI.wav,,5f607efeea3f070107273203,2021-07-12_17h09.42.077,Agingstudy,2020.2.10,Win32,60,,,,,E,,,,,,,,,,,,,,,2,1,0.2509,0,3,3,3,1,2,NEW,NEW,,,,,,,,
,,,,,,,,,,,,,,,,TestWords/DA_CHU_VAI.wav,,5f607efeea3f070107273203,2021-07-12_17h09.42.077,Agingstudy,2020.2.10,Win32,60,,,,,E,,,,,,,,,,,,,,,2,1,0.8257,0,4,4,4,1,2,NEW,NEW,,,,,,,,
,,,,,,,,,,,,,,,,TestWords/CHU_LA_PAY.wav,,5f607efeea3f070107273203,2021-07-12_17h09.42.077,Agingstudy,2020.2.10,Win32,60,,,,,E,,,,,,,,,,,,,,,2,1,0.5467,0,5,5,5,1,2,NEW,NEW,,,,,,,,
,,,,,,,,,,,,,,,,TestWords/RAY_PA_TI.wav,,5f607efeea3f070107273203,2021-07-12_17h09.42.077,Agingstudy,2020.2.10,Win32,60,,,,,E,,,,,,,,,,,,,,,2,1,0.7734,0,6,6,6,1,2,NEW,NEW,,,,,,,,
,,,,,,,,,,,,,,,,TestWords/WAI_VU_NA.wav,,5f607efeea3f070107273203,2021-07-12_17h09.42.077,Agingstudy,2020.2.10,Win32,60,,,,,E,,,,,,,,,,,,,,,2,1,0.8128,0,7,7,7,1,2,NEW,NEW,,,,,,,,
,,,,,,,,,,,,,,,,TestWords/VAI_HO_LA.wav,,5f607efeea3f070107273203,2021-07-12_17h09.42.077,Agingstudy,2020.2.10,Win32,60,,,,,E,,,,,,,,,,,,,,,2,1,0.9995,0,8,8,8,1,2,NEW,NEW,,,,,,,,
,,,,,,,,,,,,,,,,TestWords/KAY_LI_BA.wav,,5f607efeea3f070107273203,2021-07-12_17h09.42.077,Agingstudy,2020.2.10,Win32,60,,,,,E,,,,,,,,,,,,,,,2,1,0.5982,0,9,9,9,1,2,NEW,SIMILAR,,,,,,,,
,,,,,,,,,,,,,,,,TestWords/GA_MU_ZI.wav,,5f607efeea3f070107273203,2021-07-12_17h09.42.077,Agingstudy,2020.2.10,Win32,60,,,,,E,,,,,,,,,,,,,,,1,1,0.5865,0,10,10,10,1,1,OLD,OLD,,,,,,,,
,,,,,,,,,,,,,,,,TestWords/LA_ZAY_CHAI.wav,,5f607efeea3f070107273203,2021-07-12_17h09.42.077,Agingstudy,2020.2.10,Win32,60,,,,,E,,,,,,,,,,,,,,,2,1,0.5016,0,11,11,11,1,2,NEW,NEW,,,,,,,,
,,,,,,,,,,,,,,,,TestWords/RAY_PA_TI.wav,,5f607efeea3f070107273203,2021-07-12_17h09.42.077,Agingstudy,2020.2.10,Win32,60,,,,,E,,,,,,,,,,,,,,,1,1,0.9545,0,12,12,12,1,1,OLD,OLD,,,,,,,,
,,,,,,,,,,,,,,,,TestWords/WAI_NA_VU.wav,,5f607efeea3f070107273203,2021-07-12_17h09.42.077,Agingstudy,2020.2.10,Win32,60,,,,,E,,,,,,,,,,,,,,,1,0,0.7705,0,13,13,13,1,2,NEW,SIMILAR,,,,,,,,
,,,,,,,,,,,,,,,,TestWords/DAI_RU_CHI.wav,,5f607efeea3f070107273203,2021-07-12_17h09.42.077,Agingstudy,2020.2.10,Win32,60,,,,,E,,,,,,,,,,,,,,,2,1,0.4674,0,14,14,14,1,2,NEW,NEW,,,,,,,,
,,,,,,,,,,,,,,,,TestWords/KAY_BA_LI.wav,,5f607efeea3f070107273203,2021-07-12_17h09.42.077,Agingstudy,2020.2.10,Win32,60,,,,,E,,,,,,,,,,,,,,,2,1,0.5969,0,15,15,15,1,2,NEW,SIMILAR,,,,,,,,
,,,,,,,,,,,,,,,,TestWords/GA_MU_ZI.wav,,5f607efeea3f070107273203,2021-07-12_17h09.42.077,Agingstudy,2020.2.10,Win32,60,,,,,E,,,,,,,,,,,,,,,1,1,0.5094,0,16,16,16,1,1,OLD,OLD,,,,,,,,
,,,,,,,,,,,,,,,,TestWords/VU_NA_WAI.wav,,5f607efeea3f070107273203,2021-07-12_17h09.42.077,Agingstudy,2020.2.10,Win32,60,,,,,E,,,,,,,,,,,,,,,2,1,0.7239,0,17,17,17,1,2,NEW,SIMILAR,,,,,,,,
,,,,,,,,,,,,,,,,TestWords/RAY_PA_TI.wav,,5f607efeea3f070107273203,2021-07-12_17h09.42.077,Agingstudy,2020.2.10,Win32,60,,,,,E,,,,,,,,,,,,,,,1,1,0.9327,0,18,18,18,1,1,OLD,OLD,,,,,,,,
,,,,,,,,,,,,,,,,TestWords/LI_BA_KAY.wav,,5f607efeea3f070107273203,2021-07-12_17h09.42.077,Agingstudy,2020.2.10,Win32,60,,,,,E,,,,,,,,,,,,,,,1,0,0.7649,0,19,19,19,1,2,NEW,SIMILAR,,,,,,,,
,,,,,,,,,,,,,,,,TestWords/DAY_MO_PU.wav,,5f607efeea3f070107273203,2021-07-12_17h09.42.077,Agingstudy,2020.2.10,Win32,60,,,,,E,,,,,,,,,,,,,,,2,1,0.4484,0,20,20,20,1,2,NEW,NEW,,,,,,,,
,,,,,,,,,,,,,,,,TestWords/DAI_RU_CHI.wav,,5f607efeea3f070107273203,2021-07-12_17h09.42.077,Agingstudy,2020.2.10,Win32,60,,,,,E,,,,,,,,,,,,,,,1,1,1.2449,0,21,21,21,1,1,OLD,OLD,,,,,,,,
,,,,,,,,,,,,,,,,TestWords/NU_CHAY_SO.wav,,5f607efeea3f070107273203,2021-07-12_17h09.42.077,Agingstudy,2020.2.10,Win32,60,,,,,E,,,,,,,,,,,,,,,2,1,0.7074,0,22,22,22,1,2,NEW,NEW,,,,,,,,
,,,,,,,,,,,,,,,,TestWords/VU_WAI_NA.wav,,5f607efeea3f070107273203,2021-07-12_17h09.42.077,Agingstudy,2020.2.10,Win32,60,,,,,E,,,,,,,,,,,,,,,1,0,1.0801,0,23,23,23,1,2,NEW,SIMILAR,,,,,,,,
,,,,,,,,,,,,,,,,TestWords/GA_MU_ZI.wav,,5f607efeea3f070107273203,2021-07-12_17h09.42.077,Agingstudy,2020.2.10,Win32,60,,,,,E,,,,,,,,,,,,,,,1,1,0.7116,0,24,24,24,1,1,OLD,OLD,,,,,,,,
,,,,,,,,,,,,,,,,TestWords/RAY_PA_TI.wav,,5f607efeea3f070107273203,2021-07-12_17h09.42.077,Agingstudy,2020.2.10,Win32,60,,,,,E,,,,,,,,,,,,,,,1,1,0.6988,0,25,25,25,1,1,OLD,OLD,,,,,,,,
,,,,,,,,,,,,,,,,TestWords/KAI_LAY_TA.wav,,5f607efeea3f070107273203,2021-07-12_17h09.42.077,Agingstudy,2020.2.10,Win32,60,,,,,E,,,,,,,,,,,,,,,2,1,0.9642,0,26,26,26,1,2,NEW,NEW,,,,,,,,
,,,,,,,,,,,,,,,,TestWords/TAI_SA_GI.wav,,5f607efeea3f070107273203,2021-07-12_17h09.42.077,Agingstudy,2020.2.10,Win32,60,,,,,E,,,,,,,,,,,,,,,2,1,0.8513,0,27,27,27,1,2,NEW,NEW,,,,,,,,
,,,,,,,,,,,,,,,,TestWords/BA_LI_KAY.wav,,5f607efeea3f070107273203,2021-07-12_17h09.42.077,Agingstudy,2020.2.10,Win32,60,,,,,E,,,,,,,,,,,,,,,1,0,0.283,0,28,28,28,1,2,NEW,SIMILAR,,,,,,,,
,,,,,,,,,,,,,,,,TestWords/KO_SU_FAI.wav,,5f607efeea3f070107273203,2021-07-12_17h09.42.077,Agingstudy,2020.2.10,Win32,60,,,,,E,,,,,,,,,,,,,,,1,0,1.0346,0,29,29,29,1,2,NEW,NEW,,,,,,,,
,,,,,,,,,,,,,,,,TestWords/MO_DAY_PU.wav,,5f607efeea3f070107273203,2021-07-12_17h09.42.077,Agingstudy,2020.2.10,Win32,60,,,,,E,,,,,,,,,,,,,,,1,0,0.467,0,30,30,30,1,2,NEW,SIMILAR,,,,,,,,
,,,,,,,,,,,,,,,,TestWords/DAI_RU_CHI.wav,,5f607efeea3f070107273203,2021-07-12_17h09.42.077,Agingstudy,2020.2.10,Win32,60,,,,,E,,,,,,,,,,,,,,,2,0,0.5147,0,31,31,31,1,1,OLD,OLD,,,,,,,,
,,,,,,,,,,,,,,,,TestWords/NA_VU_WAI.wav,,5f607efeea3f070107273203,2021-07-12_17h09.42.077,Agingstudy,2020.2.10,Win32,60,,,,,E,,,,,,,,,,,,,,,1,0,0.8674,0,32,32,32,1,2,NEW,SIMILAR,,,,,,,,
,,,,,,,,,,,,,,,,TestWords/KAI_LAY_TA.wav,,5f607efeea3f070107273203,2021-07-12_17h09.42.077,Agingstudy,2020.2.10,Win32,60,,,,,E,,,,,,,,,,,,,,,2,0,1.0605,0,33,33,33,1,1,OLD,OLD,,,,,,,,
,,,,,,,,,,,,,,,,TestWords/RAY_PA_TI.wav,,5f607efeea3f070107273203,2021-07-12_17h09.42.077,Agingstudy,2020.2.10,Win32,60,,,,,E,,,,,,,,,,,,,,,1,1,0.1833,0,34,34,34,1,1,OLD,OLD,,,,,,,,
,,,,,,,,,,,,,,,,TestWords/GA_MU_ZI.wav,,5f607efeea3f070107273203,2021-07-12_17h09.42.077,Agingstudy,2020.2.10,Win32,60,,,,,E,,,,,,,,,,,,,,,1,1,0.7376,0,35,35,35,1,1,OLD,OLD,,,,,,,,
,,,,,,,,,,,,,,,,TestWords/GI_SA_TAI.wav,,5f607efeea3f070107273203,2021-07-12_17h09.42.077,Agingstudy,2020.2.10,Win32,60,,,,,E,,,,,,,,,,,,,,,2,1,0.5007,0,36,36,36,1,2,NEW,SIMILAR,,,,,,,,
,,,,,,,,,,,,,,,,TestWords/KO_SU_FAI.wav,,5f607efeea3f070107273203,2021-07-12_17h09.42.077,Agingstudy,2020.2.10,Win32,60,,,,,E,,,,,,,,,,,,,,,2,0,1.0662,0,37,37,37,1,1,OLD,OLD,,,,,,,,
,,,,,,,,,,,,,,,,TestWords/LI_KAY_BA.wav,,5f607efeea3f070107273203,2021-07-12_17h09.42.077,Agingstudy,2020.2.10,Win32,60,,,,,E,,,,,,,,,,,,,,,1,0,0.6454,0,38,38,38,1,2,NEW,SIMILAR,,,,,,,,
,,,,,,,,,,,,,,,,TestWords/NA_WAI_VU.wav,,5f607efeea3f070107273203,2021-07-12_17h09.42.077,Agingstudy,2020.2.10,Win32,60,,,,,E,,,,,,,,,,,,,,,1,0,0.9121,0,39,39,39,1,2,NEW,SIMILAR,,,,,,,,
,,,,,,,,,,,,,,,,TestWords/KAI_LAY_TA.wav,,5f607efeea3f070107273203,2021-07-12_17h09.42.077,Agingstudy,2020.2.10,Win32,60,,,,,E,,,,,,,,,,,,,,,1,1,0.3541,0,40,40,40,1,1,OLD,OLD,,,,,,,,
,,,,,,,,,,,,,,,,TestWords/RAY_PA_TI.wav,,5f607efeea3f070107273203,2021-07-12_17h09.42.077,Agingstudy,2020.2.10,Win32,60,,,,,E,,,,,,,,,,,,,,,1,1,0.2182,0,41,41,41,1,1,OLD,OLD,,,,,,,,
,,,,,,,,,,,,,,,,TestWords/PU_DAY_MO.wav,,5f607efeea3f070107273203,2021-07-12_17h09.42.077,Agingstudy,2020.2.10,Win32,60,,,,,E,,,,,,,,,,,,,,,2,1,0.5905,0,42,42,42,1,2,NEW,SIMILAR,,,,,,,,
,,,,,,,,,,,,,,,,TestWords/GA_MU_ZI.wav,,5f607efeea3f070107273203,2021-07-12_17h09.42.077,Agingstudy,2020.2.10,Win32,60,,,,,E,,,,,,,,,,,,,,,1,1,0.4967,0,43,43,43,1,1,OLD,OLD,,,,,,,,
,,,,,,,,,,,,,,,,TestWords/DAI_RU_CHI.wav,,5f607efeea3f070107273203,2021-07-12_17h09.42.077,Agingstudy,2020.2.10,Win32,60,,,,,E,,,,,,,,,,,,,,,1,1,1.1801,0,44,44,44,1,1,OLD,OLD,,,,,,,,
,,,,,,,,,,,,,,,,TestWords/GI_TAI_SA.wav,,5f607efeea3f070107273203,2021-07-12_17h09.42.077,Agingstudy,2020.2.10,Win32,60,,,,,E,,,,,,,,,,,,,,,2,1,0.4962,0,45,45,45,1,2,NEW,SIMILAR,,,,,,,,
,,,,,,,,,,,,,,,,TestWords/KO_SU_FAI.wav,,5f607efeea3f070107273203,2021-07-12_17h09.42.077,Agingstudy,2020.2.10,Win32,60,,,,,E,,,,,,,,,,,,,,,2,0,1.3498,0,46,46,46,1,1,OLD,OLD,,,,,,,,
,,,,,,,,,,,,,,,,TestWords/WAI_RO_JU.wav,,5f607efeea3f070107273203,2021-07-12_17h09.42.077,Agingstudy,2020.2.10,Win32,60,,,,,E,,,,,,,,,,,,,,,1,0,0.7183,0,47,47,47,1,2,NEW,NEW,,,,,,,,
,,,,,,,,,,,,,,,,TestWords/KAI_LAY_TA.wav,,5f607efeea3f070107273203,2021-07-12_17h09.42.077,Agingstudy,2020.2.10,Win32,60,,,,,E,,,,,,,,,,,,,,,1,1,0.9014,0,48,48,48,1,1,OLD,OLD,,,,,,,,
,,,,,,,,,,,,,,,,TestWords/DAI_RU_CHI.wav,,5f607efeea3f070107273203,2021-07-12_17h09.42.077,Agingstudy,2020.2.10,Win32,60,,,,,E,,,,,,,,,,,,,,,1,1,0.3481,0,49,49,49,1,1,OLD,OLD,,,,,,,,
,,,,,,,,,,,,,,,,TestWords/RAY_PA_TI.wav,,5f607efeea3f070107273203,2021-07-12_17h09.42.077,Agingstudy,2020.2.10,Win32,60,,,,,E,,,,,,,,,,,,,,,1,1,0.1348,0,50,50,50,1,1,OLD,OLD,,,,,,,,
,,,,,,,,,,,,,,,,TestWords/SA_TAI_GI.wav,,5f607efeea3f070107273203,2021-07-12_17h09.42.077,Agingstudy,2020.2.10,Win32,60,,,,,E,,,,,,,,,,,,,,,2,1,0.6187,0,51,51,51,1,2,NEW,SIMILAR,,,,,,,,
,,,,,,,,,,,,,,,,TestWords/KO_SU_FAI.wav,,5f607efeea3f070107273203,2021-07-12_17h09.42.077,Agingstudy,2020.2.10,Win32,60,,,,,E,,,,,,,,,,,,,,,2,0,1.1241,0,52,52,52,1,1,OLD,OLD,,,,,,,,
,,,,,,,,,,,,,,,,TestWords/PU_MO_DAY.wav,,5f607efeea3f070107273203,2021-07-12_17h09.42.077,Agingstudy,2020.2.10,Win32,60,,,,,E,,,,,,,,,,,,,,,1,0,0.3973,0,53,53,53,1,2,NEW,SIMILAR,,,,,,,,
,,,,,,,,,,,,,,,,TestWords/GA_MU_ZI.wav,,5f607efeea3f070107273203,2021-07-12_17h09.42.077,Agingstudy,2020.2.10,Win32,60,,,,,E,,,,,,,,,,,,,,,1,1,0.1837,0,54,54,54,1,1,OLD,OLD,,,,,,,,
,,,,,,,,,,,,,,,,TestWords/KAI_LAY_TA.wav,,5f607efeea3f070107273203,2021-07-12_17h09.42.077,Agingstudy,2020.2.10,Win32,60,,,,,E,,,,,,,,,,,,,,,1,1,0.2359,0,55,55,55,1,1,OLD,OLD,,,,,,,,
,,,,,,,,,,,,,,,,TestWords/SA_GI_TAI.wav,,5f607efeea3f070107273203,2021-07-12_17h09.42.077,Agingstudy,2020.2.10,Win32,60,,,,,E,,,,,,,,,,,,,,,2,1,0.7297,0,56,56,56,1,2,NEW,SIMILAR,,,,,,,,
,,,,,,,,,,,,,,,,TestWords/RAY_PA_TI.wav,,5f607efeea3f070107273203,2021-07-12_17h09.42.077,Agingstudy,2020.2.10,Win32,60,,,,,E,,,,,,,,,,,,,,,1,1,0.1171,0,57,57,57,1,1,OLD,OLD,,,,,,,,
,,,,,,,,,,,,,,,,TestWords/DAI_RU_CHI.wav,,5f607efeea3f070107273203,2021-07-12_17h09.42.077,Agingstudy,2020.2.10,Win32,60,,,,,E,,,,,,,,,,,,,,,1,1,0.7652,0,58,58,58,1,1,OLD,OLD,,,,,,,,
,,,,,,,,,,,,,,,,TestWords/KO_SU_FAI.wav,,5f607efeea3f070107273203,2021-07-12_17h09.42.077,Agingstudy,2020.2.10,Win32,60,,,,,E,,,,,,,,,,,,,,,2,0,0.8392,0,59,59,59,1,1,OLD,OLD,,,,,,,,
,,,,,,,,,,,,,,,,TestWords/ZO_RAI_FU.wav,,5f607efeea3f070107273203,2021-07-12_17h09.42.077,Agingstudy,2020.2.10,Win32,60,,,,,E,,,,,,,,,,,,,,,2,1,0.9314,0,60,60,60,1,2,NEW,NEW,,,,,,,,
,,,,,,,,,,,,,,,,TestWords/KAI_LAY_TA.wav,,5f607efeea3f070107273203,2021-07-12_17h09.42.077,Agingstudy,2020.2.10,Win32,60,,,,,E,,,,,,,,,,,,,,,1,1,0.4339,0,61,61,61,1,1,OLD,OLD,,,,,,,,
,,,,,,,,,,,,,,,,TestWords/GA_MU_ZI.wav,,5f607efeea3f070107273203,2021-07-12_17h09.42.077,Agingstudy,2020.2.10,Win32,60,,,,,E,,,,,,,,,,,,,,,1,1,0.1992,0,62,62,62,1,1,OLD,OLD,,,,,,,,
,,,,,,,,,,,,,,,,TestWords/TAI_GI_SA.wav,,5f607efeea3f070107273203,2021-07-12_17h09.42.077,Agingstudy,2020.2.10,Win32,60,,,,,E,,,,,,,,,,,,,,,1,0,0.4135,0,63,63,63,1,2,NEW,SIMILAR,,,,,,,,
,,,,,,,,,,,,,,,,TestWords/RAY_PA_TI.wav,,5f607efeea3f070107273203,2021-07-12_17h09.42.077,Agingstudy,2020.2.10,Win32,60,,,,,E,,,,,,,,,,,,,,,1,1,0.0301,0,64,64,64,1,1,OLD,OLD,,,,,,,,
,,,,,,,,,,,,,,,,TestWords/DAY_PU_MO.wav,,5f607efeea3f070107273203,2021-07-12_17h09.42.077,Agingstudy,2020.2.10,Win32,60,,,,,E,,,,,,,,,,,,,,,2,1,0.7483,0,65,65,65,1,2,NEW,SIMILAR,,,,,,,,
,,,,,,,,,,,,,,,,TestWords/KO_SU_FAI.wav,,5f607efeea3f070107273203,2021-07-12_17h09.42.077,Agingstudy,2020.2.10,Win32,60,,,,,E,,,,,,,,,,,,,,,1,1,0.6172,0,66,66,66,1,1,OLD,OLD,,,,,,,,
,,,,,,,,,,,,,,,,TestWords/DAI_RU_CHI.wav,,5f607efeea3f070107273203,2021-07-12_17h09.42.077,Agingstudy,2020.2.10,Win32,60,,,,,E,,,,,,,,,,,,,,,1,1,0.2961,0,67,67,67,1,1,OLD,OLD,,,,,,,,
,,,,,,,,,,,,,,,,TestWords/KAI_LAY_TA.wav,,5f607efeea3f070107273203,2021-07-12_17h09.42.077,Agingstudy,2020.2.10,Win32,60,,,,,E,,,,,,,,,,,,,,,1,1,0.3008,0,68,68,68,1,1,OLD,OLD,,,,,,,,
,,,,,,,,,,,,,,,,TestWords/SI_VAI_CHU.wav,,5f607efeea3f070107273203,2021-07-12_17h09.42.077,Agingstudy,2020.2.10,Win32,60,,,,,E,,,,,,,,,,,,,,,2,1,0.4493,0,69,69,69,1,2,NEW,NEW,,,,,,,,
,,,,,,,,,,,,,,,,TestWords/GA_MU_ZI.wav,,5f607efeea3f070107273203,2021-07-12_17h09.42.077,Agingstudy,2020.2.10,Win32,60,,,,,E,,,,,,,,,,,,,,,1,1,0.0092,0,70,70,70,1,1,OLD,OLD,,,,,,,,
,,,,,,,,,,,,,,,,TestWords/KO_SU_FAI.wav,,5f607efeea3f070107273203,2021-07-12_17h09.42.077,Agingstudy,2020.2.10,Win32,60,,,,,E,,,,,,,,,,,,,,,1,1,0.4489,0,71,71,71,1,1,OLD,OLD,,,,,,,,
,,,,,,,,,,,,,,,,TestWords/RAI_FU_ZO.wav,,5f607efeea3f070107273203,2021-07-12_17h09.42.077,Agingstudy,2020.2.10,Win32,60,,,,,E,,,,,,,,,,,,,,,1,0,0.303,0,72,72,72,1,2,NEW,SIMILAR,,,,,,,,
,,,,,,,,,,,,,,,,TestWords/KAI_LAY_TA.wav,,5f607efeea3f070107273203,2021-07-12_17h09.42.077,Agingstudy,2020.2.10,Win32,60,,,,,E,,,,,,,,,,,,,,,1,1,0.2642,0,73,73,73,1,1,OLD,OLD,,,,,,,,
,,,,,,,,,,,,,,,,TestWords/RAY_PA_TI.wav,,5f607efeea3f070107273203,2021-07-12_17h09.42.077,Agingstudy,2020.2.10,Win32,60,,,,,E,,,,,,,,,,,,,,,1,1,0.0461,0,74,74,74,1,1,OLD,OLD,,,,,,,,
,,,,,,,,,,,,,,,,TestWords/DAI_RU_CHI.wav,,5f607efeea3f070107273203,2021-07-12_17h09.42.077,Agingstudy,2020.2.10,Win32,60,,,,,E,,,,,,,,,,,,,,,1,1,0.3332,0,75,75,75,1,1,OLD,OLD,,,,,,,,
,,,,,,,,,,,,,,,,TestWords/MO_PU_DAY.wav,,5f607efeea3f070107273203,2021-07-12_17h09.42.077,Agingstudy,2020.2.10,Win32,60,,,,,E,,,,,,,,,,,,,,,1,0,0.5233,0,76,76,76,1,2,NEW,SIMILAR,,,,,,,,
,,,,,,,,,,,,,,,,TestWords/GA_MU_ZI.wav,,5f607efeea3f070107273203,2021-07-12_17h09.42.077,Agingstudy,2020.2.10,Win32,60,,,,,E,,,,,,,,,,,,,,,1,1,0.1338,0,77,77,77,1,1,OLD,OLD,,,,,,,,
,,,,,,,,,,,,,,,,TestWords/KO_SU_FAI.wav,,5f607efeea3f070107273203,2021-07-12_17h09.42.077,Agingstudy,2020.2.10,Win32,60,,,,,E,,,,,,,,,,,,,,,2,0,0.3528,0,78,78,78,1,1,OLD,OLD,,,,,,,,
,,,,,,,,,,,,,,,,TestWords/NO_WA_BAY.wav,,5f607efeea3f070107273203,2021-07-12_17h09.42.077,Agingstudy,2020.2.10,Win32,60,,,,,E,,,,,,,,,,,,,,,2,1,0.8354,0,79,79,79,1,2,NEW,NEW,,,,,,,,
,,,,,,,,,,,,,,,,TestWords/KAI_LAY_TA.wav,,5f607efeea3f070107273203,2021-07-12_17h09.42.077,Agingstudy,2020.2.10,Win32,60,,,,,E,,,,,,,,,,,,,,,1,1,0.3142,0,80,80,80,1,1,OLD,OLD,,,,,,,,
,,,,,,,,,,,,,,,,TestWords/RAY_PA_TI.wav,,5f607efeea3f070107273203,2021-07-12_17h09.42.077,Agingstudy,2020.2.10,Win32,60,,,,,E,,,,,,,,,,,,,,,1,1,0.0236,0,81,81,81,1,1,OLD,OLD,,,,,,,,
,,,,,,,,,,,,,,,,TestWords/RAI_ZO_FU.wav,,5f607efeea3f070107273203,2021-07-12_17h09.42.077,Agingstudy,2020.2.10,Win32,60,,,,,E,,,,,,,,,,,,,,,1,0,0.4804,0,82,82,82,1,2,NEW,SIMILAR,,,,,,,,
,,,,,,,,,,,,,,,,TestWords/DAI_RU_CHI.wav,,5f607efeea3f070107273203,2021-07-12_17h09.42.077,Agingstudy,2020.2.10,Win32,60,,,,,E,,,,,,,,,,,,,,,1,1,0.9087,0,83,83,83,1,1,OLD,OLD,,,,,,,,
,,,,,,,,,,,,,,,,TestWords/HA_SI_JAI.wav,,5f607efeea3f070107273203,2021-07-12_17h09.42.077,Agingstudy,2020.2.10,Win32,60,,,,,E,,,,,,,,,,,,,,,2,1,0.5758,0,84,84,84,1,2,NEW,NEW,,,,,,,,
,,,,,,,,,,,,,,,,TestWords/KO_SU_FAI.wav,,5f607efeea3f070107273203,2021-07-12_17h09.42.077,Agingstudy,2020.2.10,Win32,60,,,,,E,,,,,,,,,,,,,,,2,0,0.6133,0,85,85,85,1,1,OLD,OLD,,,,,,,,
,,,,,,,,,,,,,,,,TestWords/KAI_LAY_TA.wav,,5f607efeea3f070107273203,2021-07-12_17h09.42.077,Agingstudy,2020.2.10,Win32,60,,,,,E,,,,,,,,,,,,,,,1,1,0.232,0,86,86,86,1,1,OLD,OLD,,,,,,,,
,,,,,,,,,,,,,,,,TestWords/GA_MU_ZI.wav,,5f607efeea3f070107273203,2021-07-12_17h09.42.077,Agingstudy,2020.2.10,Win32,60,,,,,E,,,,,,,,,,,,,,,1,1,0.1557,0,87,87,87,1,1,OLD,OLD,,,,,,,,
,,,,,,,,,,,,,,,,TestWords/FU_ZO_RAI.wav,,5f607efeea3f070107273203,2021-07-12_17h09.42.077,Agingstudy,2020.2.10,Win32,60,,,,,E,,,,,,,,,,,,,,,2,1,0.7968,0,88,88,88,1,2,NEW,SIMILAR,,,,,,,,
,,,,,,,,,,,,,,,,TestWords/KO_SU_FAI.wav,,5f607efeea3f070107273203,2021-07-12_17h09.42.077,Agingstudy,2020.2.10,Win32,60,,,,,E,,,,,,,,,,,,,,,1,1,0.5144,0,89,89,89,1,1,OLD,OLD,,,,,,,,
,,,,,,,,,,,,,,,,TestWords/KAI_LAY_TA.wav,,5f607efeea3f070107273203,2021-07-12_17h09.42.077,Agingstudy,2020.2.10,Win32,60,,,,,E,,,,,,,,,,,,,,,1,1,0.1314,0,90,90,90,1,1,OLD,OLD,,,,,,,,
,,,,,,,,,,,,,,,,TestWords/DAI_RU_CHI.wav,,5f607efeea3f070107273203,2021-07-12_17h09.42.077,Agingstudy,2020.2.10,Win32,60,,,,,E,,,,,,,,,,,,,,,1,1,0.1002,0,91,91,91,1,1,OLD,OLD,,,,,,,,
,,,,,,,,,,,,,,,,TestWords/HI_NAY_VA.wav,,5f607efeea3f070107273203,2021-07-12_17h09.42.077,Agingstudy,2020.2.10,Win32,60,,,,,E,,,,,,,,,,,,,,,2,1,0.2825,0,92,92,92,1,2,NEW,NEW,,,,,,,,
,,,,,,,,,,,,,,,,TestWords/GU_CHAI_PI.wav,,5f607efeea3f070107273203,2021-07-12_17h09.42.077,Agingstudy,2020.2.10,Win32,60,,,,,E,,,,,,,,,,,,,,,1,0,0.3,0,93,93,93,1,2,NEW,NEW,,,,,,,,
,,,,,,,,,,,,,,,,TestWords/FU_RAI_ZO.wav,,5f607efeea3f070107273203,2021-07-12_17h09.42.077,Agingstudy,2020.2.10,Win32,60,,,,,E,,,,,,,,,,,,,,,1,0,0.5654,0,94,94,94,1,2,NEW,SIMILAR,,,,,,,,
,,,,,,,,,,,,,,,,TestWords/KO_SU_FAI.wav,,5f607efeea3f070107273203,2021-07-12_17h09.42.077,Agingstudy,2020.2.10,Win32,60,,,,,E,,,,,,,,,,,,,,,1,1,0.4929,0,95,95,95,1,1,OLD,OLD,,,,,,,,
,,,,,,,,,,,,,,,,TestWords/PAI_LU_WA.wav,,5f607efeea3f070107273203,2021-07-12_17h09.42.077,Agingstudy,2020.2.10,Win32,60,,,,,E,,,,,,,,,,,,,,,2,1,0.6027,0,96,96,96,1,2,NEW,NEW,,,,,,,,
,,,,,,,,,,,,,,,,TestWords/DAI_RU_CHI.wav,,5f607efeea3f070107273203,2021-07-12_17h09.42.077,Agingstudy,2020.2.10,Win32,60,,,,,E,,,,,,,,,,,,,,,1,1,0.1976,0,97,97,97,1,1,OLD,OLD,,,,,,,,
,,,,,,,,,,,,,,,,TestWords/FI_GU_CHA.wav,,5f607efeea3f070107273203,2021-07-12_17h09.42.077,Agingstudy,2020.2.10,Win32,60,,,,,E,,,,,,,,,,,,,,,2,1,0.2166,0,98,98,98,1,2,NEW,NEW,,,,,,,,
,,,,,,,,,,,,,,,,TestWords/ZO_FU_RAI.wav,,5f607efeea3f070107273203,2021-07-12_17h09.42.077,Agingstudy,2020.2.10,Win32,60,,,,,E,,,,,,,,,,,,,,,2,1,0.7387,0,99,99,99,1,2,NEW,SIMILAR,,,,,,,,
,,,,,,,,,,,,,,,,,,5f607efeea3f070107273203,2021-07-12_17h09.42.077,Agingstudy,2020.2.10,Win32,60,,,,,,,,,,,,,,,,,,,,,,,,,,,,,,,0,0,0,0,1,,,
,,,,,,,,,,,,,,,,,,5f607efeea3f070107273203,2021-07-12_17h09.42.077,Agingstudy,2020.2.10,Win32,60,,,,,,,,,,,,,,,,,,,,,,,,,,,,,,,,,,,,return,19.9924,
