Welcome0Continue.keys,Welcome0Continue.rt,SoundCheckBegin.keys,SoundCheckBegin.rt,SoundCheckEndKey.keys,SoundCheckEndKey.rt,HeadphoneContinueKey.keys,HeadphoneContinueKey.rt,CheckResp.keys,CheckResp.corr,CheckResp.rt,HeadphoneLoop.thisRepN,HeadphoneLoop.thisTrialN,HeadphoneLoop.thisN,HeadphoneLoop.thisIndex,HeadphoneLoop.ran,File,Correct,participant,date,expName,psychopyVersion,OS,frameRate,ContinueKey8.keys,ContinueKey8.rt,MSTWelcomeContKey.keys,MSTWelcomeContKey.rt,Condition,MSTTrainIntroKey.keys,MSTTrainIntroKey.rt,MSTTrainKeys.keys,MSTTrainKeys.corr,MSTTrainKeys.rt,MSTTrainLoop.thisRepN,MSTTrainLoop.thisTrialN,MSTTrainLoop.thisN,MSTTrainLoop.thisIndex,MSTTrainLoop.ran,SoundFile,Type,MSTTestBeginKey.keys,MSTTestBeginKey.rt,MST_resp.keys,MST_resp.corr,MST_resp.rt,MSTPlayLoop.thisRepN,MSTPlayLoop.thisTrialN,MSTPlayLoop.thisN,MSTPlayLoop.thisIndex,MSTPlayLoop.ran,WordCorrect,Correct_type,WordType,MSTLoop.thisRepN,MSTLoop.thisTrialN,MSTLoop.thisN,MSTLoop.thisIndex,MSTLoop.ran,EndAllKey.keys,EndAllKey.rt,FeedbackResp.text
space,17.65,space,9.235,space,9.128,space,23.367,1,1,4.351,0,0,0,1,1,Headphone/t1_2.wav,1,5f6c423e8071b21b35b07ea6,2021-08-03_18h57.19.514,Agingstudy,2020.2.10,Win32,60,,,,,,,,,,,,,,,,,,,,,,,,,,,,,,,,,,,,,,
,,,,,,,,3,1,1.424,0,1,1,4,1,Headphone/t3_1.wav,3,5f6c423e8071b21b35b07ea6,2021-08-03_18h57.19.514,Agingstudy,2020.2.10,Win32,60,,,,,,,,,,,,,,,,,,,,,,,,,,,,,,,,,,,,,,
,,,,,,,,1,0,1.028,0,2,2,5,1,Headphone/t3_2.wav,3,5f6c423e8071b21b35b07ea6,2021-08-03_18h57.19.514,Agingstudy,2020.2.10,Win32,60,,,,,,,,,,,,,,,,,,,,,,,,,,,,,,,,,,,,,,
,,,,,,,,2,1,0.554,0,3,3,2,1,Headphone/t2_1.wav,2,5f6c423e8071b21b35b07ea6,2021-08-03_18h57.19.514,Agingstudy,2020.2.10,Win32,60,,,,,,,,,,,,,,,,,,,,,,,,,,,,,,,,,,,,,,
,,,,,,,,1,1,0.557,0,4,4,0,1,Headphone/t1_1.wav,1,5f6c423e8071b21b35b07ea6,2021-08-03_18h57.19.514,Agingstudy,2020.2.10,Win32,60,,,,,,,,,,,,,,,,,,,,,,,,,,,,,,,,,,,,,,
,,,,,,,,2,1,0.385,0,5,5,3,1,Headphone/t2_2.wav,2,5f6c423e8071b21b35b07ea6,2021-08-03_18h57.19.514,Agingstudy,2020.2.10,Win32,60,,,,,,,,,,,,,,,,,,,,,,,,,,,,,,,,,,,,,,
,,,,,,,,,,,,,,,,,2,5f6c423e8071b21b35b07ea6,2021-08-03_18h57.19.514,Agingstudy,2020.2.10,Win32,60,space,19.702,space,11.432,1,space,4.472,2,1,8.793,0,0,0,0,1,Training/FO_YI_LAY.wav,NEW,,,,,,,,,,,,,,,,,,,,,
,,,,,,,,,,,,,,,,,1,5f6c423e8071b21b35b07ea6,2021-08-03_18h57.19.514,Agingstudy,2020.2.10,Win32,60,,,,,,,,1,1,3.462,0,1,1,1,1,Training/FO_YI_LAY.wav,OLD,,,,,,,,,,,,,,,,,,,,,
,,,,,,,,,,,,,,,,,2,5f6c423e8071b21b35b07ea6,2021-08-03_18h57.19.514,Agingstudy,2020.2.10,Win32,60,,,,,,,,2,1,1.985,0,2,2,2,1,Training/YO_BU_JAY.wav,NEW,,,,,,,,,,,,,,,,,,,,,
,,,,,,,,,,,,,,,,,2,5f6c423e8071b21b35b07ea6,2021-08-03_18h57.19.514,Agingstudy,2020.2.10,Win32,60,,,,,,,,2,1,1.115,0,3,3,3,1,Training/JAY_YO_BU.wav,SIMILAR,,,,,,,,,,,,,,,,,,,,,
,,,,,,,,,,,,,,,,,1,5f6c423e8071b21b35b07ea6,2021-08-03_18h57.19.514,Agingstudy,2020.2.10,Win32,60,,,,,,,,2,0,2.702,0,4,4,4,1,Training/FO_YI_LAY.wav,OLD,,,,,,,,,,,,,,,,,,,,,
,,,,,,,,,,,,,,,,TestWords/HO_NAY_VA.wav,,5f6c423e8071b21b35b07ea6,2021-08-03_18h57.19.514,Agingstudy,2020.2.10,Win32,60,,,,,E,,,,,,,,,,,,,space,8.152,2,1,3.908,0,0,0,0,1,2,NEW,NEW,,,,,,,,
,,,,,,,,,,,,,,,,TestWords/LU_HAI_BO.wav,,5f6c423e8071b21b35b07ea6,2021-08-03_18h57.19.514,Agingstudy,2020.2.10,Win32,60,,,,,E,,,,,,,,,,,,,,,2,1,1.654,0,1,1,1,1,2,NEW,NEW,,,,,,,,
,,,,,,,,,,,,,,,,TestWords/GA_MU_ZI.wav,,5f6c423e8071b21b35b07ea6,2021-08-03_18h57.19.514,Agingstudy,2020.2.10,Win32,60,,,,,E,,,,,,,,,,,,,,,2,1,1.022,0,2,2,2,1,2,NEW,NEW,,,,,,,,
,,,,,,,,,,,,,,,,TestWords/BA_KAY_LI.wav,,5f6c423e8071b21b35b07ea6,2021-08-03_18h57.19.514,Agingstudy,2020.2.10,Win32,60,,,,,E,,,,,,,,,,,,,,,2,1,0.575,0,3,3,3,1,2,NEW,NEW,,,,,,,,
,,,,,,,,,,,,,,,,TestWords/DA_CHU_VAI.wav,,5f6c423e8071b21b35b07ea6,2021-08-03_18h57.19.514,Agingstudy,2020.2.10,Win32,60,,,,,E,,,,,,,,,,,,,,,2,1,0.686,0,4,4,4,1,2,NEW,NEW,,,,,,,,
,,,,,,,,,,,,,,,,TestWords/CHU_LA_PAY.wav,,5f6c423e8071b21b35b07ea6,2021-08-03_18h57.19.514,Agingstudy,2020.2.10,Win32,60,,,,,E,,,,,,,,,,,,,,,2,1,1.786,0,5,5,5,1,2,NEW,NEW,,,,,,,,
,,,,,,,,,,,,,,,,TestWords/RAY_PA_TI.wav,,5f6c423e8071b21b35b07ea6,2021-08-03_18h57.19.514,Agingstudy,2020.2.10,Win32,60,,,,,E,,,,,,,,,,,,,,,2,1,1.087,0,6,6,6,1,2,NEW,NEW,,,,,,,,
,,,,,,,,,,,,,,,,TestWords/WAI_VU_NA.wav,,5f6c423e8071b21b35b07ea6,2021-08-03_18h57.19.514,Agingstudy,2020.2.10,Win32,60,,,,,E,,,,,,,,,,,,,,,2,1,0.903,0,7,7,7,1,2,NEW,NEW,,,,,,,,
,,,,,,,,,,,,,,,,TestWords/VAI_HO_LA.wav,,5f6c423e8071b21b35b07ea6,2021-08-03_18h57.19.514,Agingstudy,2020.2.10,Win32,60,,,,,E,,,,,,,,,,,,,,,2,1,1.312,0,8,8,8,1,2,NEW,NEW,,,,,,,,
,,,,,,,,,,,,,,,,TestWords/KAY_LI_BA.wav,,5f6c423e8071b21b35b07ea6,2021-08-03_18h57.19.514,Agingstudy,2020.2.10,Win32,60,,,,,E,,,,,,,,,,,,,,,2,1,1.14,0,9,9,9,1,2,NEW,SIMILAR,,,,,,,,
,,,,,,,,,,,,,,,,TestWords/GA_MU_ZI.wav,,5f6c423e8071b21b35b07ea6,2021-08-03_18h57.19.514,Agingstudy,2020.2.10,Win32,60,,,,,E,,,,,,,,,,,,,,,1,1,1.689,0,10,10,10,1,1,OLD,OLD,,,,,,,,
,,,,,,,,,,,,,,,,TestWords/LA_ZAY_CHAI.wav,,5f6c423e8071b21b35b07ea6,2021-08-03_18h57.19.514,Agingstudy,2020.2.10,Win32,60,,,,,E,,,,,,,,,,,,,,,2,1,0.657,0,11,11,11,1,2,NEW,NEW,,,,,,,,
,,,,,,,,,,,,,,,,TestWords/RAY_PA_TI.wav,,5f6c423e8071b21b35b07ea6,2021-08-03_18h57.19.514,Agingstudy,2020.2.10,Win32,60,,,,,E,,,,,,,,,,,,,,,1,1,1.593,0,12,12,12,1,1,OLD,OLD,,,,,,,,
,,,,,,,,,,,,,,,,TestWords/WAI_NA_VU.wav,,5f6c423e8071b21b35b07ea6,2021-08-03_18h57.19.514,Agingstudy,2020.2.10,Win32,60,,,,,E,,,,,,,,,,,,,,,1,0,0.952,0,13,13,13,1,2,NEW,SIMILAR,,,,,,,,
,,,,,,,,,,,,,,,,TestWords/DAI_RU_CHI.wav,,5f6c423e8071b21b35b07ea6,2021-08-03_18h57.19.514,Agingstudy,2020.2.10,Win32,60,,,,,E,,,,,,,,,,,,,,,2,1,0.544,0,14,14,14,1,2,NEW,NEW,,,,,,,,
,,,,,,,,,,,,,,,,TestWords/KAY_BA_LI.wav,,5f6c423e8071b21b35b07ea6,2021-08-03_18h57.19.514,Agingstudy,2020.2.10,Win32,60,,,,,E,,,,,,,,,,,,,,,1,0,1.687,0,15,15,15,1,2,NEW,SIMILAR,,,,,,,,
,,,,,,,,,,,,,,,,TestWords/GA_MU_ZI.wav,,5f6c423e8071b21b35b07ea6,2021-08-03_18h57.19.514,Agingstudy,2020.2.10,Win32,60,,,,,E,,,,,,,,,,,,,,,1,1,1.113,0,16,16,16,1,1,OLD,OLD,,,,,,,,
,,,,,,,,,,,,,,,,TestWords/VU_NA_WAI.wav,,5f6c423e8071b21b35b07ea6,2021-08-03_18h57.19.514,Agingstudy,2020.2.10,Win32,60,,,,,E,,,,,,,,,,,,,,,2,1,0.877,0,17,17,17,1,2,NEW,SIMILAR,,,,,,,,
,,,,,,,,,,,,,,,,TestWords/RAY_PA_TI.wav,,5f6c423e8071b21b35b07ea6,2021-08-03_18h57.19.514,Agingstudy,2020.2.10,Win32,60,,,,,E,,,,,,,,,,,,,,,1,1,0.778,0,18,18,18,1,1,OLD,OLD,,,,,,,,
,,,,,,,,,,,,,,,,TestWords/LI_BA_KAY.wav,,5f6c423e8071b21b35b07ea6,2021-08-03_18h57.19.514,Agingstudy,2020.2.10,Win32,60,,,,,E,,,,,,,,,,,,,,,1,0,0.553,0,19,19,19,1,2,NEW,SIMILAR,,,,,,,,
,,,,,,,,,,,,,,,,TestWords/DAY_MO_PU.wav,,5f6c423e8071b21b35b07ea6,2021-08-03_18h57.19.514,Agingstudy,2020.2.10,Win32,60,,,,,E,,,,,,,,,,,,,,,1,0,1.495,0,20,20,20,1,2,NEW,NEW,,,,,,,,
,,,,,,,,,,,,,,,,TestWords/DAI_RU_CHI.wav,,5f6c423e8071b21b35b07ea6,2021-08-03_18h57.19.514,Agingstudy,2020.2.10,Win32,60,,,,,E,,,,,,,,,,,,,,,1,1,0.896,0,21,21,21,1,1,OLD,OLD,,,,,,,,
,,,,,,,,,,,,,,,,TestWords/NU_CHAY_SO.wav,,5f6c423e8071b21b35b07ea6,2021-08-03_18h57.19.514,Agingstudy,2020.2.10,Win32,60,,,,,E,,,,,,,,,,,,,,,2,1,0.545,0,22,22,22,1,2,NEW,NEW,,,,,,,,
,,,,,,,,,,,,,,,,TestWords/VU_WAI_NA.wav,,5f6c423e8071b21b35b07ea6,2021-08-03_18h57.19.514,Agingstudy,2020.2.10,Win32,60,,,,,E,,,,,,,,,,,,,,,2,1,0.56,0,23,23,23,1,2,NEW,SIMILAR,,,,,,,,
,,,,,,,,,,,,,,,,TestWords/GA_MU_ZI.wav,,5f6c423e8071b21b35b07ea6,2021-08-03_18h57.19.514,Agingstudy,2020.2.10,Win32,60,,,,,E,,,,,,,,,,,,,,,1,1,0.686,0,24,24,24,1,1,OLD,OLD,,,,,,,,
,,,,,,,,,,,,,,,,TestWords/RAY_PA_TI.wav,,5f6c423e8071b21b35b07ea6,2021-08-03_18h57.19.514,Agingstudy,2020.2.10,Win32,60,,,,,E,,,,,,,,,,,,,,,1,1,0.83,0,25,25,25,1,1,OLD,OLD,,,,,,,,
,,,,,,,,,,,,,,,,TestWords/KAI_LAY_TA.wav,,5f6c423e8071b21b35b07ea6,2021-08-03_18h57.19.514,Agingstudy,2020.2.10,Win32,60,,,,,E,,,,,,,,,,,,,,,2,1,0.493,0,26,26,26,1,2,NEW,NEW,,,,,,,,
,,,,,,,,,,,,,,,,TestWords/TAI_SA_GI.wav,,5f6c423e8071b21b35b07ea6,2021-08-03_18h57.19.514,Agingstudy,2020.2.10,Win32,60,,,,,E,,,,,,,,,,,,,,,2,1,0.419,0,27,27,27,1,2,NEW,NEW,,,,,,,,
,,,,,,,,,,,,,,,,TestWords/BA_LI_KAY.wav,,5f6c423e8071b21b35b07ea6,2021-08-03_18h57.19.514,Agingstudy,2020.2.10,Win32,60,,,,,E,,,,,,,,,,,,,,,1,0,1.103,0,28,28,28,1,2,NEW,SIMILAR,,,,,,,,
,,,,,,,,,,,,,,,,TestWords/KO_SU_FAI.wav,,5f6c423e8071b21b35b07ea6,2021-08-03_18h57.19.514,Agingstudy,2020.2.10,Win32,60,,,,,E,,,,,,,,,,,,,,,2,1,0.712,0,29,29,29,1,2,NEW,NEW,,,,,,,,
,,,,,,,,,,,,,,,,TestWords/MO_DAY_PU.wav,,5f6c423e8071b21b35b07ea6,2021-08-03_18h57.19.514,Agingstudy,2020.2.10,Win32,60,,,,,E,,,,,,,,,,,,,,,1,0,1.51,0,30,30,30,1,2,NEW,SIMILAR,,,,,,,,
,,,,,,,,,,,,,,,,TestWords/DAI_RU_CHI.wav,,5f6c423e8071b21b35b07ea6,2021-08-03_18h57.19.514,Agingstudy,2020.2.10,Win32,60,,,,,E,,,,,,,,,,,,,,,1,1,0.664,0,31,31,31,1,1,OLD,OLD,,,,,,,,
,,,,,,,,,,,,,,,,TestWords/NA_VU_WAI.wav,,5f6c423e8071b21b35b07ea6,2021-08-03_18h57.19.514,Agingstudy,2020.2.10,Win32,60,,,,,E,,,,,,,,,,,,,,,2,1,1.721,0,32,32,32,1,2,NEW,SIMILAR,,,,,,,,
,,,,,,,,,,,,,,,,TestWords/KAI_LAY_TA.wav,,5f6c423e8071b21b35b07ea6,2021-08-03_18h57.19.514,Agingstudy,2020.2.10,Win32,60,,,,,E,,,,,,,,,,,,,,,1,1,1.653,0,33,33,33,1,1,OLD,OLD,,,,,,,,
,,,,,,,,,,,,,,,,TestWords/RAY_PA_TI.wav,,5f6c423e8071b21b35b07ea6,2021-08-03_18h57.19.514,Agingstudy,2020.2.10,Win32,60,,,,,E,,,,,,,,,,,,,,,1,1,0.452,0,34,34,34,1,1,OLD,OLD,,,,,,,,
,,,,,,,,,,,,,,,,TestWords/GA_MU_ZI.wav,,5f6c423e8071b21b35b07ea6,2021-08-03_18h57.19.514,Agingstudy,2020.2.10,Win32,60,,,,,E,,,,,,,,,,,,,,,1,1,0.707,0,35,35,35,1,1,OLD,OLD,,,,,,,,
,,,,,,,,,,,,,,,,TestWords/GI_SA_TAI.wav,,5f6c423e8071b21b35b07ea6,2021-08-03_18h57.19.514,Agingstudy,2020.2.10,Win32,60,,,,,E,,,,,,,,,,,,,,,2,1,0.385,0,36,36,36,1,2,NEW,SIMILAR,,,,,,,,
,,,,,,,,,,,,,,,,TestWords/KO_SU_FAI.wav,,5f6c423e8071b21b35b07ea6,2021-08-03_18h57.19.514,Agingstudy,2020.2.10,Win32,60,,,,,E,,,,,,,,,,,,,,,2,0,0.407,0,37,37,37,1,1,OLD,OLD,,,,,,,,
,,,,,,,,,,,,,,,,TestWords/LI_KAY_BA.wav,,5f6c423e8071b21b35b07ea6,2021-08-03_18h57.19.514,Agingstudy,2020.2.10,Win32,60,,,,,E,,,,,,,,,,,,,,,2,1,0.669,0,38,38,38,1,2,NEW,SIMILAR,,,,,,,,
,,,,,,,,,,,,,,,,TestWords/NA_WAI_VU.wav,,5f6c423e8071b21b35b07ea6,2021-08-03_18h57.19.514,Agingstudy,2020.2.10,Win32,60,,,,,E,,,,,,,,,,,,,,,1,0,0.485,0,39,39,39,1,2,NEW,SIMILAR,,,,,,,,
,,,,,,,,,,,,,,,,TestWords/KAI_LAY_TA.wav,,5f6c423e8071b21b35b07ea6,2021-08-03_18h57.19.514,Agingstudy,2020.2.10,Win32,60,,,,,E,,,,,,,,,,,,,,,1,1,0.726,0,40,40,40,1,1,OLD,OLD,,,,,,,,
,,,,,,,,,,,,,,,,TestWords/RAY_PA_TI.wav,,5f6c423e8071b21b35b07ea6,2021-08-03_18h57.19.514,Agingstudy,2020.2.10,Win32,60,,,,,E,,,,,,,,,,,,,,,1,1,0.303,0,41,41,41,1,1,OLD,OLD,,,,,,,,
,,,,,,,,,,,,,,,,TestWords/PU_DAY_MO.wav,,5f6c423e8071b21b35b07ea6,2021-08-03_18h57.19.514,Agingstudy,2020.2.10,Win32,60,,,,,E,,,,,,,,,,,,,,,1,0,0.736,0,42,42,42,1,2,NEW,SIMILAR,,,,,,,,
,,,,,,,,,,,,,,,,TestWords/GA_MU_ZI.wav,,5f6c423e8071b21b35b07ea6,2021-08-03_18h57.19.514,Agingstudy,2020.2.10,Win32,60,,,,,E,,,,,,,,,,,,,,,1,1,0.457,0,43,43,43,1,1,OLD,OLD,,,,,,,,
,,,,,,,,,,,,,,,,TestWords/DAI_RU_CHI.wav,,5f6c423e8071b21b35b07ea6,2021-08-03_18h57.19.514,Agingstudy,2020.2.10,Win32,60,,,,,E,,,,,,,,,,,,,,,1,1,0.419,0,44,44,44,1,1,OLD,OLD,,,,,,,,
,,,,,,,,,,,,,,,,TestWords/GI_TAI_SA.wav,,5f6c423e8071b21b35b07ea6,2021-08-03_18h57.19.514,Agingstudy,2020.2.10,Win32,60,,,,,E,,,,,,,,,,,,,,,2,1,0.661,0,45,45,45,1,2,NEW,SIMILAR,,,,,,,,
,,,,,,,,,,,,,,,,TestWords/KO_SU_FAI.wav,,5f6c423e8071b21b35b07ea6,2021-08-03_18h57.19.514,Agingstudy,2020.2.10,Win32,60,,,,,E,,,,,,,,,,,,,,,1,1,1.258,0,46,46,46,1,1,OLD,OLD,,,,,,,,
,,,,,,,,,,,,,,,,TestWords/WAI_RO_JU.wav,,5f6c423e8071b21b35b07ea6,2021-08-03_18h57.19.514,Agingstudy,2020.2.10,Win32,60,,,,,E,,,,,,,,,,,,,,,1,0,1.262,0,47,47,47,1,2,NEW,NEW,,,,,,,,
,,,,,,,,,,,,,,,,TestWords/KAI_LAY_TA.wav,,5f6c423e8071b21b35b07ea6,2021-08-03_18h57.19.514,Agingstudy,2020.2.10,Win32,60,,,,,E,,,,,,,,,,,,,,,2,0,0.877,0,48,48,48,1,1,OLD,OLD,,,,,,,,
,,,,,,,,,,,,,,,,TestWords/DAI_RU_CHI.wav,,5f6c423e8071b21b35b07ea6,2021-08-03_18h57.19.514,Agingstudy,2020.2.10,Win32,60,,,,,E,,,,,,,,,,,,,,,1,1,0.668,0,49,49,49,1,1,OLD,OLD,,,,,,,,
,,,,,,,,,,,,,,,,TestWords/RAY_PA_TI.wav,,5f6c423e8071b21b35b07ea6,2021-08-03_18h57.19.514,Agingstudy,2020.2.10,Win32,60,,,,,E,,,,,,,,,,,,,,,1,1,0.036,0,50,50,50,1,1,OLD,OLD,,,,,,,,
,,,,,,,,,,,,,,,,TestWords/SA_TAI_GI.wav,,5f6c423e8071b21b35b07ea6,2021-08-03_18h57.19.514,Agingstudy,2020.2.10,Win32,60,,,,,E,,,,,,,,,,,,,,,2,1,0.727,0,51,51,51,1,2,NEW,SIMILAR,,,,,,,,
,,,,,,,,,,,,,,,,TestWords/KO_SU_FAI.wav,,5f6c423e8071b21b35b07ea6,2021-08-03_18h57.19.514,Agingstudy,2020.2.10,Win32,60,,,,,E,,,,,,,,,,,,,,,2,0,0.762,0,52,52,52,1,1,OLD,OLD,,,,,,,,
,,,,,,,,,,,,,,,,TestWords/PU_MO_DAY.wav,,5f6c423e8071b21b35b07ea6,2021-08-03_18h57.19.514,Agingstudy,2020.2.10,Win32,60,,,,,E,,,,,,,,,,,,,,,2,1,0.152,0,53,53,53,1,2,NEW,SIMILAR,,,,,,,,
,,,,,,,,,,,,,,,,TestWords/GA_MU_ZI.wav,,5f6c423e8071b21b35b07ea6,2021-08-03_18h57.19.514,Agingstudy,2020.2.10,Win32,60,,,,,E,,,,,,,,,,,,,,,1,1,0.375,0,54,54,54,1,1,OLD,OLD,,,,,,,,
,,,,,,,,,,,,,,,,TestWords/KAI_LAY_TA.wav,,5f6c423e8071b21b35b07ea6,2021-08-03_18h57.19.514,Agingstudy,2020.2.10,Win32,60,,,,,E,,,,,,,,,,,,,,,2,0,1.219,0,55,55,55,1,1,OLD,OLD,,,,,,,,
,,,,,,,,,,,,,,,,TestWords/SA_GI_TAI.wav,,5f6c423e8071b21b35b07ea6,2021-08-03_18h57.19.514,Agingstudy,2020.2.10,Win32,60,,,,,E,,,,,,,,,,,,,,,2,1,2.038,0,56,56,56,1,2,NEW,SIMILAR,,,,,,,,
,,,,,,,,,,,,,,,,TestWords/RAY_PA_TI.wav,,5f6c423e8071b21b35b07ea6,2021-08-03_18h57.19.514,Agingstudy,2020.2.10,Win32,60,,,,,E,,,,,,,,,,,,,,,1,1,0.301,0,57,57,57,1,1,OLD,OLD,,,,,,,,
,,,,,,,,,,,,,,,,TestWords/DAI_RU_CHI.wav,,5f6c423e8071b21b35b07ea6,2021-08-03_18h57.19.514,Agingstudy,2020.2.10,Win32,60,,,,,E,,,,,,,,,,,,,,,1,1,0.319,0,58,58,58,1,1,OLD,OLD,,,,,,,,
,,,,,,,,,,,,,,,,TestWords/KO_SU_FAI.wav,,5f6c423e8071b21b35b07ea6,2021-08-03_18h57.19.514,Agingstudy,2020.2.10,Win32,60,,,,,E,,,,,,,,,,,,,,,1,1,0.708,0,59,59,59,1,1,OLD,OLD,,,,,,,,
,,,,,,,,,,,,,,,,TestWords/ZO_RAI_FU.wav,,5f6c423e8071b21b35b07ea6,2021-08-03_18h57.19.514,Agingstudy,2020.2.10,Win32,60,,,,,E,,,,,,,,,,,,,,,2,1,0.837,0,60,60,60,1,2,NEW,NEW,,,,,,,,
,,,,,,,,,,,,,,,,TestWords/KAI_LAY_TA.wav,,5f6c423e8071b21b35b07ea6,2021-08-03_18h57.19.514,Agingstudy,2020.2.10,Win32,60,,,,,E,,,,,,,,,,,,,,,2,0,1.302,0,61,61,61,1,1,OLD,OLD,,,,,,,,
,,,,,,,,,,,,,,,,TestWords/GA_MU_ZI.wav,,5f6c423e8071b21b35b07ea6,2021-08-03_18h57.19.514,Agingstudy,2020.2.10,Win32,60,,,,,E,,,,,,,,,,,,,,,1,1,0.703,0,62,62,62,1,1,OLD,OLD,,,,,,,,
,,,,,,,,,,,,,,,,TestWords/TAI_GI_SA.wav,,5f6c423e8071b21b35b07ea6,2021-08-03_18h57.19.514,Agingstudy,2020.2.10,Win32,60,,,,,E,,,,,,,,,,,,,,,1,0,1.096,0,63,63,63,1,2,NEW,SIMILAR,,,,,,,,
,,,,,,,,,,,,,,,,TestWords/RAY_PA_TI.wav,,5f6c423e8071b21b35b07ea6,2021-08-03_18h57.19.514,Agingstudy,2020.2.10,Win32,60,,,,,E,,,,,,,,,,,,,,,1,1,0.218,0,64,64,64,1,1,OLD,OLD,,,,,,,,
,,,,,,,,,,,,,,,,TestWords/DAY_PU_MO.wav,,5f6c423e8071b21b35b07ea6,2021-08-03_18h57.19.514,Agingstudy,2020.2.10,Win32,60,,,,,E,,,,,,,,,,,,,,,1,0,0.352,0,65,65,65,1,2,NEW,SIMILAR,,,,,,,,
,,,,,,,,,,,,,,,,TestWords/KO_SU_FAI.wav,,5f6c423e8071b21b35b07ea6,2021-08-03_18h57.19.514,Agingstudy,2020.2.10,Win32,60,,,,,E,,,,,,,,,,,,,,,2,0,0.56,0,66,66,66,1,1,OLD,OLD,,,,,,,,
,,,,,,,,,,,,,,,,TestWords/DAI_RU_CHI.wav,,5f6c423e8071b21b35b07ea6,2021-08-03_18h57.19.514,Agingstudy,2020.2.10,Win32,60,,,,,E,,,,,,,,,,,,,,,1,1,0.241,0,67,67,67,1,1,OLD,OLD,,,,,,,,
,,,,,,,,,,,,,,,,TestWords/KAI_LAY_TA.wav,,5f6c423e8071b21b35b07ea6,2021-08-03_18h57.19.514,Agingstudy,2020.2.10,Win32,60,,,,,E,,,,,,,,,,,,,,,1,1,0.595,0,68,68,68,1,1,OLD,OLD,,,,,,,,
,,,,,,,,,,,,,,,,TestWords/SI_VAI_CHU.wav,,5f6c423e8071b21b35b07ea6,2021-08-03_18h57.19.514,Agingstudy,2020.2.10,Win32,60,,,,,E,,,,,,,,,,,,,,,1,0,0.735,0,69,69,69,1,2,NEW,NEW,,,,,,,,
,,,,,,,,,,,,,,,,TestWords/GA_MU_ZI.wav,,5f6c423e8071b21b35b07ea6,2021-08-03_18h57.19.514,Agingstudy,2020.2.10,Win32,60,,,,,E,,,,,,,,,,,,,,,1,1,0.289,0,70,70,70,1,1,OLD,OLD,,,,,,,,
,,,,,,,,,,,,,,,,TestWords/KO_SU_FAI.wav,,5f6c423e8071b21b35b07ea6,2021-08-03_18h57.19.514,Agingstudy,2020.2.10,Win32,60,,,,,E,,,,,,,,,,,,,,,2,0,0.621,0,71,71,71,1,1,OLD,OLD,,,,,,,,
,,,,,,,,,,,,,,,,TestWords/RAI_FU_ZO.wav,,5f6c423e8071b21b35b07ea6,2021-08-03_18h57.19.514,Agingstudy,2020.2.10,Win32,60,,,,,E,,,,,,,,,,,,,,,2,1,0.803,0,72,72,72,1,2,NEW,SIMILAR,,,,,,,,
,,,,,,,,,,,,,,,,TestWords/KAI_LAY_TA.wav,,5f6c423e8071b21b35b07ea6,2021-08-03_18h57.19.514,Agingstudy,2020.2.10,Win32,60,,,,,E,,,,,,,,,,,,,,,2,0,0.693,0,73,73,73,1,1,OLD,OLD,,,,,,,,
,,,,,,,,,,,,,,,,TestWords/RAY_PA_TI.wav,,5f6c423e8071b21b35b07ea6,2021-08-03_18h57.19.514,Agingstudy,2020.2.10,Win32,60,,,,,E,,,,,,,,,,,,,,,1,1,0.352,0,74,74,74,1,1,OLD,OLD,,,,,,,,
,,,,,,,,,,,,,,,,TestWords/DAI_RU_CHI.wav,,5f6c423e8071b21b35b07ea6,2021-08-03_18h57.19.514,Agingstudy,2020.2.10,Win32,60,,,,,E,,,,,,,,,,,,,,,1,1,0.92,0,75,75,75,1,1,OLD,OLD,,,,,,,,
,,,,,,,,,,,,,,,,TestWords/MO_PU_DAY.wav,,5f6c423e8071b21b35b07ea6,2021-08-03_18h57.19.514,Agingstudy,2020.2.10,Win32,60,,,,,E,,,,,,,,,,,,,,,1,0,0.727,0,76,76,76,1,2,NEW,SIMILAR,,,,,,,,
,,,,,,,,,,,,,,,,TestWords/GA_MU_ZI.wav,,5f6c423e8071b21b35b07ea6,2021-08-03_18h57.19.514,Agingstudy,2020.2.10,Win32,60,,,,,E,,,,,,,,,,,,,,,1,1,0.069,0,77,77,77,1,1,OLD,OLD,,,,,,,,
,,,,,,,,,,,,,,,,TestWords/KO_SU_FAI.wav,,5f6c423e8071b21b35b07ea6,2021-08-03_18h57.19.514,Agingstudy,2020.2.10,Win32,60,,,,,E,,,,,,,,,,,,,,,2,0,0.668,0,78,78,78,1,1,OLD,OLD,,,,,,,,
,,,,,,,,,,,,,,,,TestWords/NO_WA_BAY.wav,,5f6c423e8071b21b35b07ea6,2021-08-03_18h57.19.514,Agingstudy,2020.2.10,Win32,60,,,,,E,,,,,,,,,,,,,,,2,1,0.295,0,79,79,79,1,2,NEW,NEW,,,,,,,,
,,,,,,,,,,,,,,,,TestWords/KAI_LAY_TA.wav,,5f6c423e8071b21b35b07ea6,2021-08-03_18h57.19.514,Agingstudy,2020.2.10,Win32,60,,,,,E,,,,,,,,,,,,,,,1,1,1.171,0,80,80,80,1,1,OLD,OLD,,,,,,,,
,,,,,,,,,,,,,,,,TestWords/RAY_PA_TI.wav,,5f6c423e8071b21b35b07ea6,2021-08-03_18h57.19.514,Agingstudy,2020.2.10,Win32,60,,,,,E,,,,,,,,,,,,,,,1,1,0.209,0,81,81,81,1,1,OLD,OLD,,,,,,,,
,,,,,,,,,,,,,,,,TestWords/RAI_ZO_FU.wav,,5f6c423e8071b21b35b07ea6,2021-08-03_18h57.19.514,Agingstudy,2020.2.10,Win32,60,,,,,E,,,,,,,,,,,,,,,2,1,1.439,0,82,82,82,1,2,NEW,SIMILAR,,,,,,,,
,,,,,,,,,,,,,,,,TestWords/DAI_RU_CHI.wav,,5f6c423e8071b21b35b07ea6,2021-08-03_18h57.19.514,Agingstudy,2020.2.10,Win32,60,,,,,E,,,,,,,,,,,,,,,1,1,0.252,0,83,83,83,1,1,OLD,OLD,,,,,,,,
,,,,,,,,,,,,,,,,TestWords/HA_SI_JAI.wav,,5f6c423e8071b21b35b07ea6,2021-08-03_18h57.19.514,Agingstudy,2020.2.10,Win32,60,,,,,E,,,,,,,,,,,,,,,2,1,0.839,0,84,84,84,1,2,NEW,NEW,,,,,,,,
,,,,,,,,,,,,,,,,TestWords/KO_SU_FAI.wav,,5f6c423e8071b21b35b07ea6,2021-08-03_18h57.19.514,Agingstudy,2020.2.10,Win32,60,,,,,E,,,,,,,,,,,,,,,2,0,1.705,0,85,85,85,1,1,OLD,OLD,,,,,,,,
,,,,,,,,,,,,,,,,TestWords/KAI_LAY_TA.wav,,5f6c423e8071b21b35b07ea6,2021-08-03_18h57.19.514,Agingstudy,2020.2.10,Win32,60,,,,,E,,,,,,,,,,,,,,,2,0,0.303,0,86,86,86,1,1,OLD,OLD,,,,,,,,
,,,,,,,,,,,,,,,,TestWords/GA_MU_ZI.wav,,5f6c423e8071b21b35b07ea6,2021-08-03_18h57.19.514,Agingstudy,2020.2.10,Win32,60,,,,,E,,,,,,,,,,,,,,,1,1,0.388,0,87,87,87,1,1,OLD,OLD,,,,,,,,
,,,,,,,,,,,,,,,,TestWords/FU_ZO_RAI.wav,,5f6c423e8071b21b35b07ea6,2021-08-03_18h57.19.514,Agingstudy,2020.2.10,Win32,60,,,,,E,,,,,,,,,,,,,,,2,1,0.935,0,88,88,88,1,2,NEW,SIMILAR,,,,,,,,
,,,,,,,,,,,,,,,,TestWords/KO_SU_FAI.wav,,5f6c423e8071b21b35b07ea6,2021-08-03_18h57.19.514,Agingstudy,2020.2.10,Win32,60,,,,,E,,,,,,,,,,,,,,,1,1,0.939,0,89,89,89,1,1,OLD,OLD,,,,,,,,
,,,,,,,,,,,,,,,,TestWords/KAI_LAY_TA.wav,,5f6c423e8071b21b35b07ea6,2021-08-03_18h57.19.514,Agingstudy,2020.2.10,Win32,60,,,,,E,,,,,,,,,,,,,,,2,0,0.905,0,90,90,90,1,1,OLD,OLD,,,,,,,,
,,,,,,,,,,,,,,,,TestWords/DAI_RU_CHI.wav,,5f6c423e8071b21b35b07ea6,2021-08-03_18h57.19.514,Agingstudy,2020.2.10,Win32,60,,,,,E,,,,,,,,,,,,,,,1,1,0.369,0,91,91,91,1,1,OLD,OLD,,,,,,,,
,,,,,,,,,,,,,,,,TestWords/HI_NAY_VA.wav,,5f6c423e8071b21b35b07ea6,2021-08-03_18h57.19.514,Agingstudy,2020.2.10,Win32,60,,,,,E,,,,,,,,,,,,,,,2,1,0.225,0,92,92,92,1,2,NEW,NEW,,,,,,,,
,,,,,,,,,,,,,,,,TestWords/GU_CHAI_PI.wav,,5f6c423e8071b21b35b07ea6,2021-08-03_18h57.19.514,Agingstudy,2020.2.10,Win32,60,,,,,E,,,,,,,,,,,,,,,1,0,0.487,0,93,93,93,1,2,NEW,NEW,,,,,,,,
,,,,,,,,,,,,,,,,TestWords/FU_RAI_ZO.wav,,5f6c423e8071b21b35b07ea6,2021-08-03_18h57.19.514,Agingstudy,2020.2.10,Win32,60,,,,,E,,,,,,,,,,,,,,,1,0,0.252,0,94,94,94,1,2,NEW,SIMILAR,,,,,,,,
,,,,,,,,,,,,,,,,TestWords/KO_SU_FAI.wav,,5f6c423e8071b21b35b07ea6,2021-08-03_18h57.19.514,Agingstudy,2020.2.10,Win32,60,,,,,E,,,,,,,,,,,,,,,1,1,0.912,0,95,95,95,1,1,OLD,OLD,,,,,,,,
,,,,,,,,,,,,,,,,TestWords/PAI_LU_WA.wav,,5f6c423e8071b21b35b07ea6,2021-08-03_18h57.19.514,Agingstudy,2020.2.10,Win32,60,,,,,E,,,,,,,,,,,,,,,2,1,0.59,0,96,96,96,1,2,NEW,NEW,,,,,,,,
,,,,,,,,,,,,,,,,TestWords/DAI_RU_CHI.wav,,5f6c423e8071b21b35b07ea6,2021-08-03_18h57.19.514,Agingstudy,2020.2.10,Win32,60,,,,,E,,,,,,,,,,,,,,,1,1,0.575,0,97,97,97,1,1,OLD,OLD,,,,,,,,
,,,,,,,,,,,,,,,,TestWords/FI_GU_CHA.wav,,5f6c423e8071b21b35b07ea6,2021-08-03_18h57.19.514,Agingstudy,2020.2.10,Win32,60,,,,,E,,,,,,,,,,,,,,,1,0,1.22,0,98,98,98,1,2,NEW,NEW,,,,,,,,
,,,,,,,,,,,,,,,,TestWords/ZO_FU_RAI.wav,,5f6c423e8071b21b35b07ea6,2021-08-03_18h57.19.514,Agingstudy,2020.2.10,Win32,60,,,,,E,,,,,,,,,,,,,,,1,0,0.58,0,99,99,99,1,2,NEW,SIMILAR,,,,,,,,
,,,,,,,,,,,,,,,,,,5f6c423e8071b21b35b07ea6,2021-08-03_18h57.19.514,Agingstudy,2020.2.10,Win32,60,,,,,,,,,,,,,,,,,,,,,,,,,,,,,,,0,0,0,0,1,,,
,,,,,,,,,,,,,,,,,,5f6c423e8071b21b35b07ea6,2021-08-03_18h57.19.514,Agingstudy,2020.2.10,Win32,60,,,,,,,,,,,,,,,,,,,,,,,,,,,,,,,,,,,,return,17.899,
