Welcome0Continue.keys,Welcome0Continue.rt,SoundCheckBegin.keys,SoundCheckBegin.rt,SoundCheckEndKey.keys,SoundCheckEndKey.rt,HeadphoneContinueKey.keys,HeadphoneContinueKey.rt,CheckResp.keys,CheckResp.corr,CheckResp.rt,HeadphoneLoop.thisRepN,HeadphoneLoop.thisTrialN,HeadphoneLoop.thisN,HeadphoneLoop.thisIndex,HeadphoneLoop.ran,File,Correct,participant,date,expName,psychopyVersion,OS,frameRate,RepeatAgainKey.keys,RepeatAgainKey.rt,RepeatAgainLoop.thisRepN,RepeatAgainLoop.thisTrialN,RepeatAgainLoop.thisN,RepeatAgainLoop.thisIndex,RepeatAgainLoop.ran,Headphone_retest.thisRepN,Headphone_retest.thisTrialN,Headphone_retest.thisN,Headphone_retest.thisIndex,Headphone_retest.ran,ContinueKey8.keys,ContinueKey8.rt,MSTWelcomeContKey.keys,MSTWelcomeContKey.rt,Condition,MSTTrainIntroKey.keys,MSTTrainIntroKey.rt,MSTTrainKeys.keys,MSTTrainKeys.corr,MSTTrainKeys.rt,MSTTrainLoop.thisRepN,MSTTrainLoop.thisTrialN,MSTTrainLoop.thisN,MSTTrainLoop.thisIndex,MSTTrainLoop.ran,SoundFile,Type,MSTTestBeginKey.keys,MSTTestBeginKey.rt,MST_resp.keys,MST_resp.corr,MST_resp.rt,MSTPlayLoop.thisRepN,MSTPlayLoop.thisTrialN,MSTPlayLoop.thisN,MSTPlayLoop.thisIndex,MSTPlayLoop.ran,WordCorrect,Correct_type,WordType,MSTLoop.thisRepN,MSTLoop.thisTrialN,MSTLoop.thisN,MSTLoop.thisIndex,MSTLoop.ran,EndAllKey.keys,EndAllKey.rt,FeedbackResp.text
space,6.634,space,3.8489,space,5.5975,space,9.2062,3,1,2.9305,0,0,0,4,1,Headphone/t3_1.wav,3,5f84b0568b326614c2194498,2021-08-01_19h00.09.336,Agingstudy,2020.2.10,MacIntel,60,,,,,,,,,,,,,,,,,,,,,,,,,,,,,,,,,,,,,,,,,,,,,,,,,,
,,,,,,,,3,0,2.556,0,1,1,0,1,Headphone/t1_1.wav,1,5f84b0568b326614c2194498,2021-08-01_19h00.09.336,Agingstudy,2020.2.10,MacIntel,60,,,,,,,,,,,,,,,,,,,,,,,,,,,,,,,,,,,,,,,,,,,,,,,,,,
,,,,,,,,2,1,1.0207,0,2,2,2,1,Headphone/t2_1.wav,2,5f84b0568b326614c2194498,2021-08-01_19h00.09.336,Agingstudy,2020.2.10,MacIntel,60,,,,,,,,,,,,,,,,,,,,,,,,,,,,,,,,,,,,,,,,,,,,,,,,,,
,,,,,,,,3,0,0.8555,0,3,3,1,1,Headphone/t1_2.wav,1,5f84b0568b326614c2194498,2021-08-01_19h00.09.336,Agingstudy,2020.2.10,MacIntel,60,,,,,,,,,,,,,,,,,,,,,,,,,,,,,,,,,,,,,,,,,,,,,,,,,,
,,,,,,,,2,1,0.7197,0,4,4,3,1,Headphone/t2_2.wav,2,5f84b0568b326614c2194498,2021-08-01_19h00.09.336,Agingstudy,2020.2.10,MacIntel,60,,,,,,,,,,,,,,,,,,,,,,,,,,,,,,,,,,,,,,,,,,,,,,,,,,
,,,,,,,,2,0,2.036,0,5,5,5,1,Headphone/t3_2.wav,3,5f84b0568b326614c2194498,2021-08-01_19h00.09.336,Agingstudy,2020.2.10,MacIntel,60,,,,,,,,,,,,,,,,,,,,,,,,,,,,,,,,,,,,,,,,,,,,,,,,,,
,,,,,,,,,,,,,,,,,,5f84b0568b326614c2194498,2021-08-01_19h00.09.336,Agingstudy,2020.2.10,MacIntel,60,space,41.8576,0,0,0,0,1,,,,,,,,,,,,,,,,,,,,,,,,,,,,,,,,,,,,,,,,,,,
,,,,,,,,,,,,,,,,,,5f84b0568b326614c2194498,2021-08-01_19h00.09.336,Agingstudy,2020.2.10,MacIntel,60,,,,,,,,0,0,0,0,1,,,,,,,,,,,,,,,,,,,,,,,,,,,,,,,,,,,,,,
,,,,,,,,2,1,1.7372,0,0,0,3,1,Headphone/t2_2.wav,2,5f84b0568b326614c2194498,2021-08-01_19h00.09.336,Agingstudy,2020.2.10,MacIntel,60,,,,,,,,,,,,,,,,,,,,,,,,,,,,,,,,,,,,,,,,,,,,,,,,,,
,,,,,,,,3,0,0.7197,0,1,1,0,1,Headphone/t1_1.wav,1,5f84b0568b326614c2194498,2021-08-01_19h00.09.336,Agingstudy,2020.2.10,MacIntel,60,,,,,,,,,,,,,,,,,,,,,,,,,,,,,,,,,,,,,,,,,,,,,,,,,,
,,,,,,,,3,0,0.8741,0,2,2,1,1,Headphone/t1_2.wav,1,5f84b0568b326614c2194498,2021-08-01_19h00.09.336,Agingstudy,2020.2.10,MacIntel,60,,,,,,,,,,,,,,,,,,,,,,,,,,,,,,,,,,,,,,,,,,,,,,,,,,
,,,,,,,,2,1,0.8504,0,3,3,2,1,Headphone/t2_1.wav,2,5f84b0568b326614c2194498,2021-08-01_19h00.09.336,Agingstudy,2020.2.10,MacIntel,60,,,,,,,,,,,,,,,,,,,,,,,,,,,,,,,,,,,,,,,,,,,,,,,,,,
,,,,,,,,3,1,0.6196,0,4,4,4,1,Headphone/t3_1.wav,3,5f84b0568b326614c2194498,2021-08-01_19h00.09.336,Agingstudy,2020.2.10,MacIntel,60,,,,,,,,,,,,,,,,,,,,,,,,,,,,,,,,,,,,,,,,,,,,,,,,,,
,,,,,,,,3,1,0.5708,0,5,5,5,1,Headphone/t3_2.wav,3,5f84b0568b326614c2194498,2021-08-01_19h00.09.336,Agingstudy,2020.2.10,MacIntel,60,,,,,,,,,,,,,,,,,,,,,,,,,,,,,,,,,,,,,,,,,,,,,,,,,,
,,,,,,,,,,,,,,,,,,5f84b0568b326614c2194498,2021-08-01_19h00.09.336,Agingstudy,2020.2.10,MacIntel,60,space,55.237,0,0,0,0,1,,,,,,,,,,,,,,,,,,,,,,,,,,,,,,,,,,,,,,,,,,,
,,,,,,,,,,,,,,,,,,5f84b0568b326614c2194498,2021-08-01_19h00.09.336,Agingstudy,2020.2.10,MacIntel,60,,,,,,,,1,0,1,0,1,,,,,,,,,,,,,,,,,,,,,,,,,,,,,,,,,,,,,,
,,,,,,,,1,1,0.4149,0,0,0,0,1,Headphone/t1_1.wav,1,5f84b0568b326614c2194498,2021-08-01_19h00.09.336,Agingstudy,2020.2.10,MacIntel,60,,,,,,,,,,,,,,,,,,,,,,,,,,,,,,,,,,,,,,,,,,,,,,,,,,
,,,,,,,,3,1,0.3014,0,1,1,4,1,Headphone/t3_1.wav,3,5f84b0568b326614c2194498,2021-08-01_19h00.09.336,Agingstudy,2020.2.10,MacIntel,60,,,,,,,,,,,,,,,,,,,,,,,,,,,,,,,,,,,,,,,,,,,,,,,,,,
,,,,,,,,2,1,0.5014,0,2,2,3,1,Headphone/t2_2.wav,2,5f84b0568b326614c2194498,2021-08-01_19h00.09.336,Agingstudy,2020.2.10,MacIntel,60,,,,,,,,,,,,,,,,,,,,,,,,,,,,,,,,,,,,,,,,,,,,,,,,,,
,,,,,,,,1,1,0.3908,0,3,3,1,1,Headphone/t1_2.wav,1,5f84b0568b326614c2194498,2021-08-01_19h00.09.336,Agingstudy,2020.2.10,MacIntel,60,,,,,,,,,,,,,,,,,,,,,,,,,,,,,,,,,,,,,,,,,,,,,,,,,,
,,,,,,,,3,1,0.3929,0,4,4,5,1,Headphone/t3_2.wav,3,5f84b0568b326614c2194498,2021-08-01_19h00.09.336,Agingstudy,2020.2.10,MacIntel,60,,,,,,,,,,,,,,,,,,,,,,,,,,,,,,,,,,,,,,,,,,,,,,,,,,
,,,,,,,,2,1,0.3712,0,5,5,2,1,Headphone/t2_1.wav,2,5f84b0568b326614c2194498,2021-08-01_19h00.09.336,Agingstudy,2020.2.10,MacIntel,60,,,,,,,,,,,,,,,,,,,,,,,,,,,,,,,,,,,,,,,,,,,,,,,,,,
,,,,,,,,,,,,,,,,,2,5f84b0568b326614c2194498,2021-08-01_19h00.09.336,Agingstudy,2020.2.10,MacIntel,60,,,,,,,,,,,,,space,21.4898,space,6.8797,1,space,3.8973,2,1,6.2145,0,0,0,0,1,Training/FO_YI_LAY.wav,NEW,,,,,,,,,,,,,,,,,,,,,
,,,,,,,,,,,,,,,,,1,5f84b0568b326614c2194498,2021-08-01_19h00.09.336,Agingstudy,2020.2.10,MacIntel,60,,,,,,,,,,,,,,,,,,,,1,1,6.1576,0,1,1,1,1,Training/FO_YI_LAY.wav,OLD,,,,,,,,,,,,,,,,,,,,,
,,,,,,,,,,,,,,,,,2,5f84b0568b326614c2194498,2021-08-01_19h00.09.336,Agingstudy,2020.2.10,MacIntel,60,,,,,,,,,,,,,,,,,,,,2,1,4.2829,0,2,2,2,1,Training/YO_BU_JAY.wav,NEW,,,,,,,,,,,,,,,,,,,,,
,,,,,,,,,,,,,,,,,2,5f84b0568b326614c2194498,2021-08-01_19h00.09.336,Agingstudy,2020.2.10,MacIntel,60,,,,,,,,,,,,,,,,,,,,2,1,1.4488,0,3,3,3,1,Training/JAY_YO_BU.wav,SIMILAR,,,,,,,,,,,,,,,,,,,,,
,,,,,,,,,,,,,,,,,1,5f84b0568b326614c2194498,2021-08-01_19h00.09.336,Agingstudy,2020.2.10,MacIntel,60,,,,,,,,,,,,,,,,,,,,1,1,4.866,0,4,4,4,1,Training/FO_YI_LAY.wav,OLD,,,,,,,,,,,,,,,,,,,,,
,,,,,,,,,,,,,,,,TestWords/SI_VAI_CHU.wav,,5f84b0568b326614c2194498,2021-08-01_19h00.09.336,Agingstudy,2020.2.10,MacIntel,60,,,,,,,,,,,,,,,,,F,,,,,,,,,,,,,space,14.0751,2,1,3.927,0,0,0,0,1,2,NEW,NEW,,,,,,,,
,,,,,,,,,,,,,,,,TestWords/HO_NAY_VA.wav,,5f84b0568b326614c2194498,2021-08-01_19h00.09.336,Agingstudy,2020.2.10,MacIntel,60,,,,,,,,,,,,,,,,,F,,,,,,,,,,,,,,,2,1,1.459,0,1,1,1,1,2,NEW,NEW,,,,,,,,
,,,,,,,,,,,,,,,,TestWords/KAI_LAY_TA.wav,,5f84b0568b326614c2194498,2021-08-01_19h00.09.336,Agingstudy,2020.2.10,MacIntel,60,,,,,,,,,,,,,,,,,F,,,,,,,,,,,,,,,2,1,1.6699,0,2,2,2,1,2,NEW,NEW,,,,,,,,
,,,,,,,,,,,,,,,,TestWords/PAI_LU_WA.wav,,5f84b0568b326614c2194498,2021-08-01_19h00.09.336,Agingstudy,2020.2.10,MacIntel,60,,,,,,,,,,,,,,,,,F,,,,,,,,,,,,,,,2,1,0.7561,0,3,3,3,1,2,NEW,NEW,,,,,,,,
,,,,,,,,,,,,,,,,TestWords/WAI_VU_NA.wav,,5f84b0568b326614c2194498,2021-08-01_19h00.09.336,Agingstudy,2020.2.10,MacIntel,60,,,,,,,,,,,,,,,,,F,,,,,,,,,,,,,,,1,0,5.7899,0,4,4,4,1,2,NEW,NEW,,,,,,,,
,,,,,,,,,,,,,,,,TestWords/VAI_HO_LA.wav,,5f84b0568b326614c2194498,2021-08-01_19h00.09.336,Agingstudy,2020.2.10,MacIntel,60,,,,,,,,,,,,,,,,,F,,,,,,,,,,,,,,,2,1,1.7336,0,5,5,5,1,2,NEW,NEW,,,,,,,,
,,,,,,,,,,,,,,,,TestWords/GU_CHAI_PI.wav,,5f84b0568b326614c2194498,2021-08-01_19h00.09.336,Agingstudy,2020.2.10,MacIntel,60,,,,,,,,,,,,,,,,,F,,,,,,,,,,,,,,,2,1,0.424,0,6,6,6,1,2,NEW,NEW,,,,,,,,
,,,,,,,,,,,,,,,,TestWords/KO_SU_FAI.wav,,5f84b0568b326614c2194498,2021-08-01_19h00.09.336,Agingstudy,2020.2.10,MacIntel,60,,,,,,,,,,,,,,,,,F,,,,,,,,,,,,,,,2,1,0.5188,0,7,7,7,1,2,NEW,NEW,,,,,,,,
,,,,,,,,,,,,,,,,TestWords/KAI_LAY_TA.wav,,5f84b0568b326614c2194498,2021-08-01_19h00.09.336,Agingstudy,2020.2.10,MacIntel,60,,,,,,,,,,,,,,,,,F,,,,,,,,,,,,,,,1,1,2.3224,0,8,8,8,1,1,OLD,OLD,,,,,,,,
,,,,,,,,,,,,,,,,TestWords/BA_KAY_LI.wav,,5f84b0568b326614c2194498,2021-08-01_19h00.09.336,Agingstudy,2020.2.10,MacIntel,60,,,,,,,,,,,,,,,,,F,,,,,,,,,,,,,,,2,1,2.3899,0,9,9,9,1,2,NEW,NEW,,,,,,,,
,,,,,,,,,,,,,,,,TestWords/DAI_RU_CHI.wav,,5f84b0568b326614c2194498,2021-08-01_19h00.09.336,Agingstudy,2020.2.10,MacIntel,60,,,,,,,,,,,,,,,,,F,,,,,,,,,,,,,,,2,1,0.6498,0,10,10,10,1,2,NEW,NEW,,,,,,,,
,,,,,,,,,,,,,,,,TestWords/WAI_NA_VU.wav,,5f84b0568b326614c2194498,2021-08-01_19h00.09.336,Agingstudy,2020.2.10,MacIntel,60,,,,,,,,,,,,,,,,,F,,,,,,,,,,,,,,,1,0,1.136,0,11,11,11,1,2,NEW,SIMILAR,,,,,,,,
,,,,,,,,,,,,,,,,TestWords/DA_CHU_VAI.wav,,5f84b0568b326614c2194498,2021-08-01_19h00.09.336,Agingstudy,2020.2.10,MacIntel,60,,,,,,,,,,,,,,,,,F,,,,,,,,,,,,,,,1,0,3.4787,0,12,12,12,1,2,NEW,NEW,,,,,,,,
,,,,,,,,,,,,,,,,TestWords/KAI_LAY_TA.wav,,5f84b0568b326614c2194498,2021-08-01_19h00.09.336,Agingstudy,2020.2.10,MacIntel,60,,,,,,,,,,,,,,,,,F,,,,,,,,,,,,,,,1,1,2.3353,0,13,13,13,1,1,OLD,OLD,,,,,,,,
,,,,,,,,,,,,,,,,TestWords/KO_SU_FAI.wav,,5f84b0568b326614c2194498,2021-08-01_19h00.09.336,Agingstudy,2020.2.10,MacIntel,60,,,,,,,,,,,,,,,,,F,,,,,,,,,,,,,,,2,0,0.8689,0,14,14,14,1,1,OLD,OLD,,,,,,,,
,,,,,,,,,,,,,,,,TestWords/VU_NA_WAI.wav,,5f84b0568b326614c2194498,2021-08-01_19h00.09.336,Agingstudy,2020.2.10,MacIntel,60,,,,,,,,,,,,,,,,,F,,,,,,,,,,,,,,,2,1,0.9502,0,15,15,15,1,2,NEW,SIMILAR,,,,,,,,
,,,,,,,,,,,,,,,,TestWords/DAI_RU_CHI.wav,,5f84b0568b326614c2194498,2021-08-01_19h00.09.336,Agingstudy,2020.2.10,MacIntel,60,,,,,,,,,,,,,,,,,F,,,,,,,,,,,,,,,1,1,4.3252,0,16,16,16,1,1,OLD,OLD,,,,,,,,
,,,,,,,,,,,,,,,,TestWords/KAY_LI_BA.wav,,5f84b0568b326614c2194498,2021-08-01_19h00.09.336,Agingstudy,2020.2.10,MacIntel,60,,,,,,,,,,,,,,,,,F,,,,,,,,,,,,,,,1,0,1.1046,0,17,17,17,1,2,NEW,SIMILAR,,,,,,,,
,,,,,,,,,,,,,,,,TestWords/RAY_PA_TI.wav,,5f84b0568b326614c2194498,2021-08-01_19h00.09.336,Agingstudy,2020.2.10,MacIntel,60,,,,,,,,,,,,,,,,,F,,,,,,,,,,,,,,,2,1,0.5607,0,18,18,18,1,2,NEW,NEW,,,,,,,,
,,,,,,,,,,,,,,,,TestWords/KAI_LAY_TA.wav,,5f84b0568b326614c2194498,2021-08-01_19h00.09.336,Agingstudy,2020.2.10,MacIntel,60,,,,,,,,,,,,,,,,,F,,,,,,,,,,,,,,,1,1,2.3018,0,19,19,19,1,1,OLD,OLD,,,,,,,,
,,,,,,,,,,,,,,,,TestWords/VU_WAI_NA.wav,,5f84b0568b326614c2194498,2021-08-01_19h00.09.336,Agingstudy,2020.2.10,MacIntel,60,,,,,,,,,,,,,,,,,F,,,,,,,,,,,,,,,1,0,1.1171,0,20,20,20,1,2,NEW,SIMILAR,,,,,,,,
,,,,,,,,,,,,,,,,TestWords/KO_SU_FAI.wav,,5f84b0568b326614c2194498,2021-08-01_19h00.09.336,Agingstudy,2020.2.10,MacIntel,60,,,,,,,,,,,,,,,,,F,,,,,,,,,,,,,,,2,0,0.5523,0,21,21,21,1,1,OLD,OLD,,,,,,,,
,,,,,,,,,,,,,,,,TestWords/HI_NAY_VA.wav,,5f84b0568b326614c2194498,2021-08-01_19h00.09.336,Agingstudy,2020.2.10,MacIntel,60,,,,,,,,,,,,,,,,,F,,,,,,,,,,,,,,,1,0,1.8852,0,22,22,22,1,2,NEW,NEW,,,,,,,,
,,,,,,,,,,,,,,,,TestWords/KAI_LAY_TA.wav,,5f84b0568b326614c2194498,2021-08-01_19h00.09.336,Agingstudy,2020.2.10,MacIntel,60,,,,,,,,,,,,,,,,,F,,,,,,,,,,,,,,,1,1,0.8266,0,23,23,23,1,1,OLD,OLD,,,,,,,,
,,,,,,,,,,,,,,,,TestWords/RAY_PA_TI.wav,,5f84b0568b326614c2194498,2021-08-01_19h00.09.336,Agingstudy,2020.2.10,MacIntel,60,,,,,,,,,,,,,,,,,F,,,,,,,,,,,,,,,1,1,1.1498,0,24,24,24,1,1,OLD,OLD,,,,,,,,
,,,,,,,,,,,,,,,,TestWords/DAI_RU_CHI.wav,,5f84b0568b326614c2194498,2021-08-01_19h00.09.336,Agingstudy,2020.2.10,MacIntel,60,,,,,,,,,,,,,,,,,F,,,,,,,,,,,,,,,2,0,0.6538,0,25,25,25,1,1,OLD,OLD,,,,,,,,
,,,,,,,,,,,,,,,,TestWords/NA_VU_WAI.wav,,5f84b0568b326614c2194498,2021-08-01_19h00.09.336,Agingstudy,2020.2.10,MacIntel,60,,,,,,,,,,,,,,,,,F,,,,,,,,,,,,,,,1,0,2.3637,0,26,26,26,1,2,NEW,SIMILAR,,,,,,,,
,,,,,,,,,,,,,,,,TestWords/KAY_BA_LI.wav,,5f84b0568b326614c2194498,2021-08-01_19h00.09.336,Agingstudy,2020.2.10,MacIntel,60,,,,,,,,,,,,,,,,,F,,,,,,,,,,,,,,,1,0,0.707,0,27,27,27,1,2,NEW,SIMILAR,,,,,,,,
,,,,,,,,,,,,,,,,TestWords/KO_SU_FAI.wav,,5f84b0568b326614c2194498,2021-08-01_19h00.09.336,Agingstudy,2020.2.10,MacIntel,60,,,,,,,,,,,,,,,,,F,,,,,,,,,,,,,,,2,0,1.2361,0,28,28,28,1,1,OLD,OLD,,,,,,,,
,,,,,,,,,,,,,,,,TestWords/KAI_LAY_TA.wav,,5f84b0568b326614c2194498,2021-08-01_19h00.09.336,Agingstudy,2020.2.10,MacIntel,60,,,,,,,,,,,,,,,,,F,,,,,,,,,,,,,,,1,1,1.1057,0,29,29,29,1,1,OLD,OLD,,,,,,,,
,,,,,,,,,,,,,,,,TestWords/RAY_PA_TI.wav,,5f84b0568b326614c2194498,2021-08-01_19h00.09.336,Agingstudy,2020.2.10,MacIntel,60,,,,,,,,,,,,,,,,,F,,,,,,,,,,,,,,,1,1,0.587,0,30,30,30,1,1,OLD,OLD,,,,,,,,
,,,,,,,,,,,,,,,,TestWords/NU_CHAY_SO.wav,,5f84b0568b326614c2194498,2021-08-01_19h00.09.336,Agingstudy,2020.2.10,MacIntel,60,,,,,,,,,,,,,,,,,F,,,,,,,,,,,,,,,2,1,0.4682,0,31,31,31,1,2,NEW,NEW,,,,,,,,
,,,,,,,,,,,,,,,,TestWords/DAI_RU_CHI.wav,,5f84b0568b326614c2194498,2021-08-01_19h00.09.336,Agingstudy,2020.2.10,MacIntel,60,,,,,,,,,,,,,,,,,F,,,,,,,,,,,,,,,1,1,1.1511,0,32,32,32,1,1,OLD,OLD,,,,,,,,
,,,,,,,,,,,,,,,,TestWords/NA_WAI_VU.wav,,5f84b0568b326614c2194498,2021-08-01_19h00.09.336,Agingstudy,2020.2.10,MacIntel,60,,,,,,,,,,,,,,,,,F,,,,,,,,,,,,,,,1,0,0.5928,0,33,33,33,1,2,NEW,SIMILAR,,,,,,,,
,,,,,,,,,,,,,,,,TestWords/GA_MU_ZI.wav,,5f84b0568b326614c2194498,2021-08-01_19h00.09.336,Agingstudy,2020.2.10,MacIntel,60,,,,,,,,,,,,,,,,,F,,,,,,,,,,,,,,,2,1,0.2015,0,34,34,34,1,2,NEW,NEW,,,,,,,,
,,,,,,,,,,,,,,,,TestWords/KAI_LAY_TA.wav,,5f84b0568b326614c2194498,2021-08-01_19h00.09.336,Agingstudy,2020.2.10,MacIntel,60,,,,,,,,,,,,,,,,,F,,,,,,,,,,,,,,,1,1,0.9029,0,35,35,35,1,1,OLD,OLD,,,,,,,,
,,,,,,,,,,,,,,,,TestWords/LI_BA_KAY.wav,,5f84b0568b326614c2194498,2021-08-01_19h00.09.336,Agingstudy,2020.2.10,MacIntel,60,,,,,,,,,,,,,,,,,F,,,,,,,,,,,,,,,1,0,2.3272,0,36,36,36,1,2,NEW,SIMILAR,,,,,,,,
,,,,,,,,,,,,,,,,TestWords/KO_SU_FAI.wav,,5f84b0568b326614c2194498,2021-08-01_19h00.09.336,Agingstudy,2020.2.10,MacIntel,60,,,,,,,,,,,,,,,,,F,,,,,,,,,,,,,,,1,1,4.2345,0,37,37,37,1,1,OLD,OLD,,,,,,,,
,,,,,,,,,,,,,,,,TestWords/RAY_PA_TI.wav,,5f84b0568b326614c2194498,2021-08-01_19h00.09.336,Agingstudy,2020.2.10,MacIntel,60,,,,,,,,,,,,,,,,,F,,,,,,,,,,,,,,,1,1,0.658,0,38,38,38,1,1,OLD,OLD,,,,,,,,
,,,,,,,,,,,,,,,,TestWords/TAI_SA_GI.wav,,5f84b0568b326614c2194498,2021-08-01_19h00.09.336,Agingstudy,2020.2.10,MacIntel,60,,,,,,,,,,,,,,,,,F,,,,,,,,,,,,,,,2,1,1.3917,0,39,39,39,1,2,NEW,NEW,,,,,,,,
,,,,,,,,,,,,,,,,TestWords/DAI_RU_CHI.wav,,5f84b0568b326614c2194498,2021-08-01_19h00.09.336,Agingstudy,2020.2.10,MacIntel,60,,,,,,,,,,,,,,,,,F,,,,,,,,,,,,,,,1,1,0.9208,0,40,40,40,1,1,OLD,OLD,,,,,,,,
,,,,,,,,,,,,,,,,TestWords/GA_MU_ZI.wav,,5f84b0568b326614c2194498,2021-08-01_19h00.09.336,Agingstudy,2020.2.10,MacIntel,60,,,,,,,,,,,,,,,,,F,,,,,,,,,,,,,,,1,1,1.3999,0,41,41,41,1,1,OLD,OLD,,,,,,,,
,,,,,,,,,,,,,,,,TestWords/KAI_LAY_TA.wav,,5f84b0568b326614c2194498,2021-08-01_19h00.09.336,Agingstudy,2020.2.10,MacIntel,60,,,,,,,,,,,,,,,,,F,,,,,,,,,,,,,,,1,1,0.757,0,42,42,42,1,1,OLD,OLD,,,,,,,,
,,,,,,,,,,,,,,,,TestWords/GI_SA_TAI.wav,,5f84b0568b326614c2194498,2021-08-01_19h00.09.336,Agingstudy,2020.2.10,MacIntel,60,,,,,,,,,,,,,,,,,F,,,,,,,,,,,,,,,2,1,0.6521,0,43,43,43,1,2,NEW,SIMILAR,,,,,,,,
,,,,,,,,,,,,,,,,TestWords/BA_LI_KAY.wav,,5f84b0568b326614c2194498,2021-08-01_19h00.09.336,Agingstudy,2020.2.10,MacIntel,60,,,,,,,,,,,,,,,,,F,,,,,,,,,,,,,,,1,0,0.5121,0,44,44,44,1,2,NEW,SIMILAR,,,,,,,,
,,,,,,,,,,,,,,,,TestWords/KO_SU_FAI.wav,,5f84b0568b326614c2194498,2021-08-01_19h00.09.336,Agingstudy,2020.2.10,MacIntel,60,,,,,,,,,,,,,,,,,F,,,,,,,,,,,,,,,1,1,3.8188,0,45,45,45,1,1,OLD,OLD,,,,,,,,
,,,,,,,,,,,,,,,,TestWords/RAY_PA_TI.wav,,5f84b0568b326614c2194498,2021-08-01_19h00.09.336,Agingstudy,2020.2.10,MacIntel,60,,,,,,,,,,,,,,,,,F,,,,,,,,,,,,,,,1,1,0.5377,0,46,46,46,1,1,OLD,OLD,,,,,,,,
,,,,,,,,,,,,,,,,TestWords/GA_MU_ZI.wav,,5f84b0568b326614c2194498,2021-08-01_19h00.09.336,Agingstudy,2020.2.10,MacIntel,60,,,,,,,,,,,,,,,,,F,,,,,,,,,,,,,,,1,1,1.1242,0,47,47,47,1,1,OLD,OLD,,,,,,,,
,,,,,,,,,,,,,,,,TestWords/LU_HAI_BO.wav,,5f84b0568b326614c2194498,2021-08-01_19h00.09.336,Agingstudy,2020.2.10,MacIntel,60,,,,,,,,,,,,,,,,,F,,,,,,,,,,,,,,,2,1,1.2401,0,48,48,48,1,2,NEW,NEW,,,,,,,,
,,,,,,,,,,,,,,,,TestWords/KAI_LAY_TA.wav,,5f84b0568b326614c2194498,2021-08-01_19h00.09.336,Agingstudy,2020.2.10,MacIntel,60,,,,,,,,,,,,,,,,,F,,,,,,,,,,,,,,,1,1,3.6345,0,49,49,49,1,1,OLD,OLD,,,,,,,,
,,,,,,,,,,,,,,,,TestWords/DAI_RU_CHI.wav,,5f84b0568b326614c2194498,2021-08-01_19h00.09.336,Agingstudy,2020.2.10,MacIntel,60,,,,,,,,,,,,,,,,,F,,,,,,,,,,,,,,,1,1,1.3181,0,50,50,50,1,1,OLD,OLD,,,,,,,,
,,,,,,,,,,,,,,,,TestWords/GI_TAI_SA.wav,,5f84b0568b326614c2194498,2021-08-01_19h00.09.336,Agingstudy,2020.2.10,MacIntel,60,,,,,,,,,,,,,,,,,F,,,,,,,,,,,,,,,2,1,0.4072,0,51,51,51,1,2,NEW,SIMILAR,,,,,,,,
,,,,,,,,,,,,,,,,TestWords/LI_KAY_BA.wav,,5f84b0568b326614c2194498,2021-08-01_19h00.09.336,Agingstudy,2020.2.10,MacIntel,60,,,,,,,,,,,,,,,,,F,,,,,,,,,,,,,,,1,0,1.3704,0,52,52,52,1,2,NEW,SIMILAR,,,,,,,,
,,,,,,,,,,,,,,,,TestWords/RAY_PA_TI.wav,,5f84b0568b326614c2194498,2021-08-01_19h00.09.336,Agingstudy,2020.2.10,MacIntel,60,,,,,,,,,,,,,,,,,F,,,,,,,,,,,,,,,1,1,0.544,0,53,53,53,1,1,OLD,OLD,,,,,,,,
,,,,,,,,,,,,,,,,TestWords/KO_SU_FAI.wav,,5f84b0568b326614c2194498,2021-08-01_19h00.09.336,Agingstudy,2020.2.10,MacIntel,60,,,,,,,,,,,,,,,,,F,,,,,,,,,,,,,,,1,1,1.2499,0,54,54,54,1,1,OLD,OLD,,,,,,,,
,,,,,,,,,,,,,,,,TestWords/DAY_PU_MO.wav,,5f84b0568b326614c2194498,2021-08-01_19h00.09.336,Agingstudy,2020.2.10,MacIntel,60,,,,,,,,,,,,,,,,,F,,,,,,,,,,,,,,,2,1,0.5956,0,55,55,55,1,2,NEW,NEW,,,,,,,,
,,,,,,,,,,,,,,,,TestWords/KAI_LAY_TA.wav,,5f84b0568b326614c2194498,2021-08-01_19h00.09.336,Agingstudy,2020.2.10,MacIntel,60,,,,,,,,,,,,,,,,,F,,,,,,,,,,,,,,,1,1,2.1264,0,56,56,56,1,1,OLD,OLD,,,,,,,,
,,,,,,,,,,,,,,,,TestWords/GA_MU_ZI.wav,,5f84b0568b326614c2194498,2021-08-01_19h00.09.336,Agingstudy,2020.2.10,MacIntel,60,,,,,,,,,,,,,,,,,F,,,,,,,,,,,,,,,1,1,0.3991,0,57,57,57,1,1,OLD,OLD,,,,,,,,
,,,,,,,,,,,,,,,,TestWords/CHU_LA_PAY.wav,,5f84b0568b326614c2194498,2021-08-01_19h00.09.336,Agingstudy,2020.2.10,MacIntel,60,,,,,,,,,,,,,,,,,F,,,,,,,,,,,,,,,2,1,0.4177,0,58,58,58,1,2,NEW,NEW,,,,,,,,
,,,,,,,,,,,,,,,,TestWords/DAI_RU_CHI.wav,,5f84b0568b326614c2194498,2021-08-01_19h00.09.336,Agingstudy,2020.2.10,MacIntel,60,,,,,,,,,,,,,,,,,F,,,,,,,,,,,,,,,1,1,0.5912,0,59,59,59,1,1,OLD,OLD,,,,,,,,
,,,,,,,,,,,,,,,,TestWords/SA_TAI_GI.wav,,5f84b0568b326614c2194498,2021-08-01_19h00.09.336,Agingstudy,2020.2.10,MacIntel,60,,,,,,,,,,,,,,,,,F,,,,,,,,,,,,,,,2,1,0.8092,0,60,60,60,1,2,NEW,SIMILAR,,,,,,,,
,,,,,,,,,,,,,,,,TestWords/RAY_PA_TI.wav,,5f84b0568b326614c2194498,2021-08-01_19h00.09.336,Agingstudy,2020.2.10,MacIntel,60,,,,,,,,,,,,,,,,,F,,,,,,,,,,,,,,,1,1,0.2571,0,61,61,61,1,1,OLD,OLD,,,,,,,,
,,,,,,,,,,,,,,,,TestWords/KAI_LAY_TA.wav,,5f84b0568b326614c2194498,2021-08-01_19h00.09.336,Agingstudy,2020.2.10,MacIntel,60,,,,,,,,,,,,,,,,,F,,,,,,,,,,,,,,,1,1,0.8522,0,62,62,62,1,1,OLD,OLD,,,,,,,,
,,,,,,,,,,,,,,,,TestWords/FU_RAI_ZO.wav,,5f84b0568b326614c2194498,2021-08-01_19h00.09.336,Agingstudy,2020.2.10,MacIntel,60,,,,,,,,,,,,,,,,,F,,,,,,,,,,,,,,,2,1,0.3717,0,63,63,63,1,2,NEW,NEW,,,,,,,,
,,,,,,,,,,,,,,,,TestWords/KO_SU_FAI.wav,,5f84b0568b326614c2194498,2021-08-01_19h00.09.336,Agingstudy,2020.2.10,MacIntel,60,,,,,,,,,,,,,,,,,F,,,,,,,,,,,,,,,2,0,1.9864,0,64,64,64,1,1,OLD,OLD,,,,,,,,
,,,,,,,,,,,,,,,,TestWords/GA_MU_ZI.wav,,5f84b0568b326614c2194498,2021-08-01_19h00.09.336,Agingstudy,2020.2.10,MacIntel,60,,,,,,,,,,,,,,,,,F,,,,,,,,,,,,,,,2,0,2.3834,0,65,65,65,1,1,OLD,OLD,,,,,,,,
,,,,,,,,,,,,,,,,TestWords/DAY_MO_PU.wav,,5f84b0568b326614c2194498,2021-08-01_19h00.09.336,Agingstudy,2020.2.10,MacIntel,60,,,,,,,,,,,,,,,,,F,,,,,,,,,,,,,,,2,1,0.4431,0,66,66,66,1,2,NEW,SIMILAR,,,,,,,,
,,,,,,,,,,,,,,,,TestWords/DAI_RU_CHI.wav,,5f84b0568b326614c2194498,2021-08-01_19h00.09.336,Agingstudy,2020.2.10,MacIntel,60,,,,,,,,,,,,,,,,,F,,,,,,,,,,,,,,,2,0,1.2787,0,67,67,67,1,1,OLD,OLD,,,,,,,,
,,,,,,,,,,,,,,,,TestWords/FI_GU_CHA.wav,,5f84b0568b326614c2194498,2021-08-01_19h00.09.336,Agingstudy,2020.2.10,MacIntel,60,,,,,,,,,,,,,,,,,F,,,,,,,,,,,,,,,2,1,0.6681,0,68,68,68,1,2,NEW,NEW,,,,,,,,
,,,,,,,,,,,,,,,,TestWords/GA_MU_ZI.wav,,5f84b0568b326614c2194498,2021-08-01_19h00.09.336,Agingstudy,2020.2.10,MacIntel,60,,,,,,,,,,,,,,,,,F,,,,,,,,,,,,,,,1,1,1.8144,0,69,69,69,1,1,OLD,OLD,,,,,,,,
,,,,,,,,,,,,,,,,TestWords/RAY_PA_TI.wav,,5f84b0568b326614c2194498,2021-08-01_19h00.09.336,Agingstudy,2020.2.10,MacIntel,60,,,,,,,,,,,,,,,,,F,,,,,,,,,,,,,,,1,1,1.0083,0,70,70,70,1,1,OLD,OLD,,,,,,,,
,,,,,,,,,,,,,,,,TestWords/SA_GI_TAI.wav,,5f84b0568b326614c2194498,2021-08-01_19h00.09.336,Agingstudy,2020.2.10,MacIntel,60,,,,,,,,,,,,,,,,,F,,,,,,,,,,,,,,,2,1,1.6923,0,71,71,71,1,2,NEW,SIMILAR,,,,,,,,
,,,,,,,,,,,,,,,,TestWords/MO_DAY_PU.wav,,5f84b0568b326614c2194498,2021-08-01_19h00.09.336,Agingstudy,2020.2.10,MacIntel,60,,,,,,,,,,,,,,,,,F,,,,,,,,,,,,,,,1,0,1.4305,0,72,72,72,1,2,NEW,SIMILAR,,,,,,,,
,,,,,,,,,,,,,,,,TestWords/KO_SU_FAI.wav,,5f84b0568b326614c2194498,2021-08-01_19h00.09.336,Agingstudy,2020.2.10,MacIntel,60,,,,,,,,,,,,,,,,,F,,,,,,,,,,,,,,,1,1,1.4095,0,73,73,73,1,1,OLD,OLD,,,,,,,,
,,,,,,,,,,,,,,,,TestWords/RAI_ZO_FU.wav,,5f84b0568b326614c2194498,2021-08-01_19h00.09.336,Agingstudy,2020.2.10,MacIntel,60,,,,,,,,,,,,,,,,,F,,,,,,,,,,,,,,,1,0,3.3365,0,74,74,74,1,2,NEW,SIMILAR,,,,,,,,
,,,,,,,,,,,,,,,,TestWords/GA_MU_ZI.wav,,5f84b0568b326614c2194498,2021-08-01_19h00.09.336,Agingstudy,2020.2.10,MacIntel,60,,,,,,,,,,,,,,,,,F,,,,,,,,,,,,,,,1,1,0.958,0,75,75,75,1,1,OLD,OLD,,,,,,,,
,,,,,,,,,,,,,,,,TestWords/DAI_RU_CHI.wav,,5f84b0568b326614c2194498,2021-08-01_19h00.09.336,Agingstudy,2020.2.10,MacIntel,60,,,,,,,,,,,,,,,,,F,,,,,,,,,,,,,,,1,1,1.5536,0,76,76,76,1,1,OLD,OLD,,,,,,,,
,,,,,,,,,,,,,,,,TestWords/TAI_GI_SA.wav,,5f84b0568b326614c2194498,2021-08-01_19h00.09.336,Agingstudy,2020.2.10,MacIntel,60,,,,,,,,,,,,,,,,,F,,,,,,,,,,,,,,,1,0,1.1025,0,77,77,77,1,2,NEW,SIMILAR,,,,,,,,
,,,,,,,,,,,,,,,,TestWords/RAY_PA_TI.wav,,5f84b0568b326614c2194498,2021-08-01_19h00.09.336,Agingstudy,2020.2.10,MacIntel,60,,,,,,,,,,,,,,,,,F,,,,,,,,,,,,,,,1,1,0.958,0,78,78,78,1,1,OLD,OLD,,,,,,,,
,,,,,,,,,,,,,,,,TestWords/PU_DAY_MO.wav,,5f84b0568b326614c2194498,2021-08-01_19h00.09.336,Agingstudy,2020.2.10,MacIntel,60,,,,,,,,,,,,,,,,,F,,,,,,,,,,,,,,,2,1,1.0364,0,79,79,79,1,2,NEW,SIMILAR,,,,,,,,
,,,,,,,,,,,,,,,,TestWords/KO_SU_FAI.wav,,5f84b0568b326614c2194498,2021-08-01_19h00.09.336,Agingstudy,2020.2.10,MacIntel,60,,,,,,,,,,,,,,,,,F,,,,,,,,,,,,,,,2,0,2.7578,0,80,80,80,1,1,OLD,OLD,,,,,,,,
,,,,,,,,,,,,,,,,TestWords/ZO_RAI_FU.wav,,5f84b0568b326614c2194498,2021-08-01_19h00.09.336,Agingstudy,2020.2.10,MacIntel,60,,,,,,,,,,,,,,,,,F,,,,,,,,,,,,,,,2,1,1.2906,0,81,81,81,1,2,NEW,SIMILAR,,,,,,,,
,,,,,,,,,,,,,,,,TestWords/GA_MU_ZI.wav,,5f84b0568b326614c2194498,2021-08-01_19h00.09.336,Agingstudy,2020.2.10,MacIntel,60,,,,,,,,,,,,,,,,,F,,,,,,,,,,,,,,,1,1,0.7005,0,82,82,82,1,1,OLD,OLD,,,,,,,,
,,,,,,,,,,,,,,,,TestWords/RAY_PA_TI.wav,,5f84b0568b326614c2194498,2021-08-01_19h00.09.336,Agingstudy,2020.2.10,MacIntel,60,,,,,,,,,,,,,,,,,F,,,,,,,,,,,,,,,1,1,0.9906,0,83,83,83,1,1,OLD,OLD,,,,,,,,
,,,,,,,,,,,,,,,,TestWords/DAI_RU_CHI.wav,,5f84b0568b326614c2194498,2021-08-01_19h00.09.336,Agingstudy,2020.2.10,MacIntel,60,,,,,,,,,,,,,,,,,F,,,,,,,,,,,,,,,1,1,2.671,0,84,84,84,1,1,OLD,OLD,,,,,,,,
,,,,,,,,,,,,,,,,TestWords/GA_MU_ZI.wav,,5f84b0568b326614c2194498,2021-08-01_19h00.09.336,Agingstudy,2020.2.10,MacIntel,60,,,,,,,,,,,,,,,,,F,,,,,,,,,,,,,,,1,1,1.0242,0,85,85,85,1,1,OLD,OLD,,,,,,,,
,,,,,,,,,,,,,,,,TestWords/NO_WA_BAY.wav,,5f84b0568b326614c2194498,2021-08-01_19h00.09.336,Agingstudy,2020.2.10,MacIntel,60,,,,,,,,,,,,,,,,,F,,,,,,,,,,,,,,,2,1,0.6861,0,86,86,86,1,2,NEW,NEW,,,,,,,,
,,,,,,,,,,,,,,,,TestWords/FU_ZO_RAI.wav,,5f84b0568b326614c2194498,2021-08-01_19h00.09.336,Agingstudy,2020.2.10,MacIntel,60,,,,,,,,,,,,,,,,,F,,,,,,,,,,,,,,,2,1,0.9106,0,87,87,87,1,2,NEW,SIMILAR,,,,,,,,
,,,,,,,,,,,,,,,,TestWords/KO_SU_FAI.wav,,5f84b0568b326614c2194498,2021-08-01_19h00.09.336,Agingstudy,2020.2.10,MacIntel,60,,,,,,,,,,,,,,,,,F,,,,,,,,,,,,,,,2,0,1.8079,0,88,88,88,1,1,OLD,OLD,,,,,,,,
,,,,,,,,,,,,,,,,TestWords/PU_MO_DAY.wav,,5f84b0568b326614c2194498,2021-08-01_19h00.09.336,Agingstudy,2020.2.10,MacIntel,60,,,,,,,,,,,,,,,,,F,,,,,,,,,,,,,,,2,1,0.5794,0,89,89,89,1,2,NEW,SIMILAR,,,,,,,,
,,,,,,,,,,,,,,,,TestWords/RAY_PA_TI.wav,,5f84b0568b326614c2194498,2021-08-01_19h00.09.336,Agingstudy,2020.2.10,MacIntel,60,,,,,,,,,,,,,,,,,F,,,,,,,,,,,,,,,1,1,0.7896,0,90,90,90,1,1,OLD,OLD,,,,,,,,
,,,,,,,,,,,,,,,,TestWords/DAI_RU_CHI.wav,,5f84b0568b326614c2194498,2021-08-01_19h00.09.336,Agingstudy,2020.2.10,MacIntel,60,,,,,,,,,,,,,,,,,F,,,,,,,,,,,,,,,1,1,1.1832,0,91,91,91,1,1,OLD,OLD,,,,,,,,
,,,,,,,,,,,,,,,,TestWords/RAI_FU_ZO.wav,,5f84b0568b326614c2194498,2021-08-01_19h00.09.336,Agingstudy,2020.2.10,MacIntel,60,,,,,,,,,,,,,,,,,F,,,,,,,,,,,,,,,1,0,0.9086,0,92,92,92,1,2,NEW,SIMILAR,,,,,,,,
,,,,,,,,,,,,,,,,TestWords/GA_MU_ZI.wav,,5f84b0568b326614c2194498,2021-08-01_19h00.09.336,Agingstudy,2020.2.10,MacIntel,60,,,,,,,,,,,,,,,,,F,,,,,,,,,,,,,,,1,1,0.7068,0,93,93,93,1,1,OLD,OLD,,,,,,,,
,,,,,,,,,,,,,,,,TestWords/HA_SI_JAI.wav,,5f84b0568b326614c2194498,2021-08-01_19h00.09.336,Agingstudy,2020.2.10,MacIntel,60,,,,,,,,,,,,,,,,,F,,,,,,,,,,,,,,,2,1,1.3611,0,94,94,94,1,2,NEW,NEW,,,,,,,,
,,,,,,,,,,,,,,,,TestWords/MO_PU_DAY.wav,,5f84b0568b326614c2194498,2021-08-01_19h00.09.336,Agingstudy,2020.2.10,MacIntel,60,,,,,,,,,,,,,,,,,F,,,,,,,,,,,,,,,1,0,1.0706,0,95,95,95,1,2,NEW,SIMILAR,,,,,,,,
,,,,,,,,,,,,,,,,TestWords/LA_ZAY_CHAI.wav,,5f84b0568b326614c2194498,2021-08-01_19h00.09.336,Agingstudy,2020.2.10,MacIntel,60,,,,,,,,,,,,,,,,,F,,,,,,,,,,,,,,,2,1,2.7404,0,96,96,96,1,2,NEW,NEW,,,,,,,,
,,,,,,,,,,,,,,,,TestWords/GA_MU_ZI.wav,,5f84b0568b326614c2194498,2021-08-01_19h00.09.336,Agingstudy,2020.2.10,MacIntel,60,,,,,,,,,,,,,,,,,F,,,,,,,,,,,,,,,1,1,0.6915,0,97,97,97,1,1,OLD,OLD,,,,,,,,
,,,,,,,,,,,,,,,,TestWords/ZO_FU_RAI.wav,,5f84b0568b326614c2194498,2021-08-01_19h00.09.336,Agingstudy,2020.2.10,MacIntel,60,,,,,,,,,,,,,,,,,F,,,,,,,,,,,,,,,1,0,0.8869,0,98,98,98,1,2,NEW,SIMILAR,,,,,,,,
,,,,,,,,,,,,,,,,TestWords/WAI_RO_JU.wav,,5f84b0568b326614c2194498,2021-08-01_19h00.09.336,Agingstudy,2020.2.10,MacIntel,60,,,,,,,,,,,,,,,,,F,,,,,,,,,,,,,,,1,0,2.2871,0,99,99,99,1,2,NEW,NEW,,,,,,,,
,,,,,,,,,,,,,,,,,,5f84b0568b326614c2194498,2021-08-01_19h00.09.336,Agingstudy,2020.2.10,MacIntel,60,,,,,,,,,,,,,,,,,,,,,,,,,,,,,,,,,,,,,,,,,,,0,0,0,0,1,,,
,,,,,,,,,,,,,,,,,,5f84b0568b326614c2194498,2021-08-01_19h00.09.336,Agingstudy,2020.2.10,MacIntel,60,,,,,,,,,,,,,,,,,,,,,,,,,,,,,,,,,,,,,,,,,,,,,,,,return,16.7671,
