Welcome0Continue.keys,Welcome0Continue.rt,SoundCheckBegin.keys,SoundCheckBegin.rt,SoundCheckEndKey.keys,SoundCheckEndKey.rt,HeadphoneContinueKey.keys,HeadphoneContinueKey.rt,CheckResp.keys,CheckResp.corr,CheckResp.rt,HeadphoneLoop.thisRepN,HeadphoneLoop.thisTrialN,HeadphoneLoop.thisN,HeadphoneLoop.thisIndex,HeadphoneLoop.ran,File,Correct,participant,date,expName,psychopyVersion,OS,frameRate,ContinueKey8.keys,ContinueKey8.rt,MSTWelcomeContKey.keys,MSTWelcomeContKey.rt,Condition,MSTTrainIntroKey.keys,MSTTrainIntroKey.rt,MSTTrainKeys.keys,MSTTrainKeys.corr,MSTTrainKeys.rt,MSTTrainLoop.thisRepN,MSTTrainLoop.thisTrialN,MSTTrainLoop.thisN,MSTTrainLoop.thisIndex,MSTTrainLoop.ran,SoundFile,Type,MSTTestBeginKey.keys,MSTTestBeginKey.rt,MST_resp.keys,MST_resp.corr,MST_resp.rt,MSTPlayLoop.thisRepN,MSTPlayLoop.thisTrialN,MSTPlayLoop.thisN,MSTPlayLoop.thisIndex,MSTPlayLoop.ran,WordCorrect,Correct_type,WordType,MSTLoop.thisRepN,MSTLoop.thisTrialN,MSTLoop.thisN,MSTLoop.thisIndex,MSTLoop.ran,EndAllKey.keys,EndAllKey.rt,FeedbackResp.text
space,10.6945,space,11.8934,space,19.0818,space,16.4201,2,1,2.479,0,0,0,3,1,Headphone/t2_2.wav,2,601d69a993d94008fb2b25dc,2021-07-19_17h11.16.345,Agingstudy,2020.2.10,Win32,60,,,,,,,,,,,,,,,,,,,,,,,,,,,,,,,,,,,,,,
,,,,,,,,3,1,1.419,0,1,1,5,1,Headphone/t3_2.wav,3,601d69a993d94008fb2b25dc,2021-07-19_17h11.16.345,Agingstudy,2020.2.10,Win32,60,,,,,,,,,,,,,,,,,,,,,,,,,,,,,,,,,,,,,,
,,,,,,,,2,1,1.4357,0,2,2,2,1,Headphone/t2_1.wav,2,601d69a993d94008fb2b25dc,2021-07-19_17h11.16.345,Agingstudy,2020.2.10,Win32,60,,,,,,,,,,,,,,,,,,,,,,,,,,,,,,,,,,,,,,
,,,,,,,,1,1,1.1442,0,3,3,1,1,Headphone/t1_2.wav,1,601d69a993d94008fb2b25dc,2021-07-19_17h11.16.345,Agingstudy,2020.2.10,Win32,60,,,,,,,,,,,,,,,,,,,,,,,,,,,,,,,,,,,,,,
,,,,,,,,3,1,1.1669,0,4,4,4,1,Headphone/t3_1.wav,3,601d69a993d94008fb2b25dc,2021-07-19_17h11.16.345,Agingstudy,2020.2.10,Win32,60,,,,,,,,,,,,,,,,,,,,,,,,,,,,,,,,,,,,,,
,,,,,,,,1,1,1.1067,0,5,5,0,1,Headphone/t1_1.wav,1,601d69a993d94008fb2b25dc,2021-07-19_17h11.16.345,Agingstudy,2020.2.10,Win32,60,,,,,,,,,,,,,,,,,,,,,,,,,,,,,,,,,,,,,,
,,,,,,,,,,,,,,,,,2,601d69a993d94008fb2b25dc,2021-07-19_17h11.16.345,Agingstudy,2020.2.10,Win32,60,space,42.9907,space,16.1625,1,space,7.3689,2,1,5.5711,0,0,0,0,1,Training/FO_YI_LAY.wav,NEW,,,,,,,,,,,,,,,,,,,,,
,,,,,,,,,,,,,,,,,1,601d69a993d94008fb2b25dc,2021-07-19_17h11.16.345,Agingstudy,2020.2.10,Win32,60,,,,,,,,1,1,6.2714,0,1,1,1,1,Training/FO_YI_LAY.wav,OLD,,,,,,,,,,,,,,,,,,,,,
,,,,,,,,,,,,,,,,,2,601d69a993d94008fb2b25dc,2021-07-19_17h11.16.345,Agingstudy,2020.2.10,Win32,60,,,,,,,,2,1,3.1856,0,2,2,2,1,Training/YO_BU_JAY.wav,NEW,,,,,,,,,,,,,,,,,,,,,
,,,,,,,,,,,,,,,,,2,601d69a993d94008fb2b25dc,2021-07-19_17h11.16.345,Agingstudy,2020.2.10,Win32,60,,,,,,,,2,1,9.7285,0,3,3,3,1,Training/JAY_YO_BU.wav,SIMILAR,,,,,,,,,,,,,,,,,,,,,
,,,,,,,,,,,,,,,,,1,601d69a993d94008fb2b25dc,2021-07-19_17h11.16.345,Agingstudy,2020.2.10,Win32,60,,,,,,,,1,1,5.8535,0,4,4,4,1,Training/FO_YI_LAY.wav,OLD,,,,,,,,,,,,,,,,,,,,,
,,,,,,,,,,,,,,,,TestWords/LU_HAI_BO.wav,,601d69a993d94008fb2b25dc,2021-07-19_17h11.16.345,Agingstudy,2020.2.10,Win32,60,,,,,B,,,,,,,,,,,,,space,17.6024,2,1,4.5055,0,0,0,0,1,2,NEW,NEW,,,,,,,,
,,,,,,,,,,,,,,,,TestWords/CHU_LA_PAY.wav,,601d69a993d94008fb2b25dc,2021-07-19_17h11.16.345,Agingstudy,2020.2.10,Win32,60,,,,,B,,,,,,,,,,,,,,,2,1,3.0893,0,1,1,1,1,2,NEW,NEW,,,,,,,,
,,,,,,,,,,,,,,,,TestWords/RAY_PA_TI.wav,,601d69a993d94008fb2b25dc,2021-07-19_17h11.16.345,Agingstudy,2020.2.10,Win32,60,,,,,B,,,,,,,,,,,,,,,2,1,3.6139,0,2,2,2,1,2,NEW,NEW,,,,,,,,
,,,,,,,,,,,,,,,,TestWords/DA_CHU_VAI.wav,,601d69a993d94008fb2b25dc,2021-07-19_17h11.16.345,Agingstudy,2020.2.10,Win32,60,,,,,B,,,,,,,,,,,,,,,2,1,3.7931,0,3,3,3,1,2,NEW,NEW,,,,,,,,
,,,,,,,,,,,,,,,,TestWords/DAY_PU_MO.wav,,601d69a993d94008fb2b25dc,2021-07-19_17h11.16.345,Agingstudy,2020.2.10,Win32,60,,,,,B,,,,,,,,,,,,,,,1,0,4.7137,0,4,4,4,1,2,NEW,NEW,,,,,,,,
,,,,,,,,,,,,,,,,TestWords/DAI_RU_CHI.wav,,601d69a993d94008fb2b25dc,2021-07-19_17h11.16.345,Agingstudy,2020.2.10,Win32,60,,,,,B,,,,,,,,,,,,,,,2,1,4.0082,0,5,5,5,1,2,NEW,NEW,,,,,,,,
,,,,,,,,,,,,,,,,TestWords/RAI_ZO_FU.wav,,601d69a993d94008fb2b25dc,2021-07-19_17h11.16.345,Agingstudy,2020.2.10,Win32,60,,,,,B,,,,,,,,,,,,,,,1,0,4.9402,0,6,6,6,1,2,NEW,NEW,,,,,,,,
,,,,,,,,,,,,,,,,TestWords/HO_NAY_VA.wav,,601d69a993d94008fb2b25dc,2021-07-19_17h11.16.345,Agingstudy,2020.2.10,Win32,60,,,,,B,,,,,,,,,,,,,,,1,0,1.1221,0,7,7,7,1,2,NEW,NEW,,,,,,,,
,,,,,,,,,,,,,,,,TestWords/RAY_PA_TI.wav,,601d69a993d94008fb2b25dc,2021-07-19_17h11.16.345,Agingstudy,2020.2.10,Win32,60,,,,,B,,,,,,,,,,,,,,,1,1,0.7627,0,8,8,8,1,1,OLD,OLD,,,,,,,,
,,,,,,,,,,,,,,,,TestWords/DAY_MO_PU.wav,,601d69a993d94008fb2b25dc,2021-07-19_17h11.16.345,Agingstudy,2020.2.10,Win32,60,,,,,B,,,,,,,,,,,,,,,1,0,0.9541,0,9,9,9,1,2,NEW,SIMILAR,,,,,,,,
,,,,,,,,,,,,,,,,TestWords/TAI_SA_GI.wav,,601d69a993d94008fb2b25dc,2021-07-19_17h11.16.345,Agingstudy,2020.2.10,Win32,60,,,,,B,,,,,,,,,,,,,,,2,1,1.7706,0,10,10,10,1,2,NEW,NEW,,,,,,,,
,,,,,,,,,,,,,,,,TestWords/DAI_RU_CHI.wav,,601d69a993d94008fb2b25dc,2021-07-19_17h11.16.345,Agingstudy,2020.2.10,Win32,60,,,,,B,,,,,,,,,,,,,,,1,1,1.6398,0,11,11,11,1,1,OLD,OLD,,,,,,,,
,,,,,,,,,,,,,,,,TestWords/GA_MU_ZI.wav,,601d69a993d94008fb2b25dc,2021-07-19_17h11.16.345,Agingstudy,2020.2.10,Win32,60,,,,,B,,,,,,,,,,,,,,,2,1,0.7407,0,12,12,12,1,2,NEW,NEW,,,,,,,,
,,,,,,,,,,,,,,,,TestWords/ZO_RAI_FU.wav,,601d69a993d94008fb2b25dc,2021-07-19_17h11.16.345,Agingstudy,2020.2.10,Win32,60,,,,,B,,,,,,,,,,,,,,,2,1,2.0102,0,13,13,13,1,2,NEW,SIMILAR,,,,,,,,
,,,,,,,,,,,,,,,,TestWords/RAY_PA_TI.wav,,601d69a993d94008fb2b25dc,2021-07-19_17h11.16.345,Agingstudy,2020.2.10,Win32,60,,,,,B,,,,,,,,,,,,,,,1,1,0.5926,0,14,14,14,1,1,OLD,OLD,,,,,,,,
,,,,,,,,,,,,,,,,TestWords/FI_GU_CHA.wav,,601d69a993d94008fb2b25dc,2021-07-19_17h11.16.345,Agingstudy,2020.2.10,Win32,60,,,,,B,,,,,,,,,,,,,,,2,1,1.3572,0,15,15,15,1,2,NEW,NEW,,,,,,,,
,,,,,,,,,,,,,,,,TestWords/MO_DAY_PU.wav,,601d69a993d94008fb2b25dc,2021-07-19_17h11.16.345,Agingstudy,2020.2.10,Win32,60,,,,,B,,,,,,,,,,,,,,,1,0,0.8901,0,16,16,16,1,2,NEW,SIMILAR,,,,,,,,
,,,,,,,,,,,,,,,,TestWords/GI_SA_TAI.wav,,601d69a993d94008fb2b25dc,2021-07-19_17h11.16.345,Agingstudy,2020.2.10,Win32,60,,,,,B,,,,,,,,,,,,,,,2,1,1.1581,0,17,17,17,1,2,NEW,SIMILAR,,,,,,,,
,,,,,,,,,,,,,,,,TestWords/FU_RAI_ZO.wav,,601d69a993d94008fb2b25dc,2021-07-19_17h11.16.345,Agingstudy,2020.2.10,Win32,60,,,,,B,,,,,,,,,,,,,,,2,1,0.8587,0,18,18,18,1,2,NEW,SIMILAR,,,,,,,,
,,,,,,,,,,,,,,,,TestWords/DAI_RU_CHI.wav,,601d69a993d94008fb2b25dc,2021-07-19_17h11.16.345,Agingstudy,2020.2.10,Win32,60,,,,,B,,,,,,,,,,,,,,,1,1,3.5495,0,19,19,19,1,1,OLD,OLD,,,,,,,,
,,,,,,,,,,,,,,,,TestWords/KO_SU_FAI.wav,,601d69a993d94008fb2b25dc,2021-07-19_17h11.16.345,Agingstudy,2020.2.10,Win32,60,,,,,B,,,,,,,,,,,,,,,2,1,0.5246,0,20,20,20,1,2,NEW,NEW,,,,,,,,
,,,,,,,,,,,,,,,,TestWords/GA_MU_ZI.wav,,601d69a993d94008fb2b25dc,2021-07-19_17h11.16.345,Agingstudy,2020.2.10,Win32,60,,,,,B,,,,,,,,,,,,,,,1,1,1.3922,0,21,21,21,1,1,OLD,OLD,,,,,,,,
,,,,,,,,,,,,,,,,TestWords/RAY_PA_TI.wav,,601d69a993d94008fb2b25dc,2021-07-19_17h11.16.345,Agingstudy,2020.2.10,Win32,60,,,,,B,,,,,,,,,,,,,,,1,1,0.608,0,22,22,22,1,1,OLD,OLD,,,,,,,,
,,,,,,,,,,,,,,,,TestWords/PU_DAY_MO.wav,,601d69a993d94008fb2b25dc,2021-07-19_17h11.16.345,Agingstudy,2020.2.10,Win32,60,,,,,B,,,,,,,,,,,,,,,2,1,1.1766,0,23,23,23,1,2,NEW,SIMILAR,,,,,,,,
,,,,,,,,,,,,,,,,TestWords/GI_TAI_SA.wav,,601d69a993d94008fb2b25dc,2021-07-19_17h11.16.345,Agingstudy,2020.2.10,Win32,60,,,,,B,,,,,,,,,,,,,,,2,1,1.4721,0,24,24,24,1,2,NEW,SIMILAR,,,,,,,,
,,,,,,,,,,,,,,,,TestWords/KO_SU_FAI.wav,,601d69a993d94008fb2b25dc,2021-07-19_17h11.16.345,Agingstudy,2020.2.10,Win32,60,,,,,B,,,,,,,,,,,,,,,2,0,0.7914,0,25,25,25,1,1,OLD,OLD,,,,,,,,
,,,,,,,,,,,,,,,,TestWords/FU_ZO_RAI.wav,,601d69a993d94008fb2b25dc,2021-07-19_17h11.16.345,Agingstudy,2020.2.10,Win32,60,,,,,B,,,,,,,,,,,,,,,2,1,0.7328,0,26,26,26,1,2,NEW,SIMILAR,,,,,,,,
,,,,,,,,,,,,,,,,TestWords/DAI_RU_CHI.wav,,601d69a993d94008fb2b25dc,2021-07-19_17h11.16.345,Agingstudy,2020.2.10,Win32,60,,,,,B,,,,,,,,,,,,,,,1,1,3.5384,0,27,27,27,1,1,OLD,OLD,,,,,,,,
,,,,,,,,,,,,,,,,TestWords/RAY_PA_TI.wav,,601d69a993d94008fb2b25dc,2021-07-19_17h11.16.345,Agingstudy,2020.2.10,Win32,60,,,,,B,,,,,,,,,,,,,,,1,1,0.8345,0,28,28,28,1,1,OLD,OLD,,,,,,,,
,,,,,,,,,,,,,,,,TestWords/GA_MU_ZI.wav,,601d69a993d94008fb2b25dc,2021-07-19_17h11.16.345,Agingstudy,2020.2.10,Win32,60,,,,,B,,,,,,,,,,,,,,,2,0,2.4263,0,29,29,29,1,1,OLD,OLD,,,,,,,,
,,,,,,,,,,,,,,,,TestWords/WAI_VU_NA.wav,,601d69a993d94008fb2b25dc,2021-07-19_17h11.16.345,Agingstudy,2020.2.10,Win32,60,,,,,B,,,,,,,,,,,,,,,2,1,1.2286,0,30,30,30,1,2,NEW,NEW,,,,,,,,
,,,,,,,,,,,,,,,,TestWords/SA_TAI_GI.wav,,601d69a993d94008fb2b25dc,2021-07-19_17h11.16.345,Agingstudy,2020.2.10,Win32,60,,,,,B,,,,,,,,,,,,,,,1,0,1.2372,0,31,31,31,1,2,NEW,SIMILAR,,,,,,,,
,,,,,,,,,,,,,,,,TestWords/PU_MO_DAY.wav,,601d69a993d94008fb2b25dc,2021-07-19_17h11.16.345,Agingstudy,2020.2.10,Win32,60,,,,,B,,,,,,,,,,,,,,,2,1,1.1683,0,32,32,32,1,2,NEW,SIMILAR,,,,,,,,
,,,,,,,,,,,,,,,,TestWords/KO_SU_FAI.wav,,601d69a993d94008fb2b25dc,2021-07-19_17h11.16.345,Agingstudy,2020.2.10,Win32,60,,,,,B,,,,,,,,,,,,,,,1,1,1.9367,0,33,33,33,1,1,OLD,OLD,,,,,,,,
,,,,,,,,,,,,,,,,TestWords/RAI_FU_ZO.wav,,601d69a993d94008fb2b25dc,2021-07-19_17h11.16.345,Agingstudy,2020.2.10,Win32,60,,,,,B,,,,,,,,,,,,,,,1,0,3.8049,0,34,34,34,1,2,NEW,SIMILAR,,,,,,,,
,,,,,,,,,,,,,,,,TestWords/KAI_LAY_TA.wav,,601d69a993d94008fb2b25dc,2021-07-19_17h11.16.345,Agingstudy,2020.2.10,Win32,60,,,,,B,,,,,,,,,,,,,,,2,1,1.0545,0,35,35,35,1,2,NEW,NEW,,,,,,,,
,,,,,,,,,,,,,,,,TestWords/RAY_PA_TI.wav,,601d69a993d94008fb2b25dc,2021-07-19_17h11.16.345,Agingstudy,2020.2.10,Win32,60,,,,,B,,,,,,,,,,,,,,,1,1,0.7515,0,36,36,36,1,1,OLD,OLD,,,,,,,,
,,,,,,,,,,,,,,,,TestWords/WAI_NA_VU.wav,,601d69a993d94008fb2b25dc,2021-07-19_17h11.16.345,Agingstudy,2020.2.10,Win32,60,,,,,B,,,,,,,,,,,,,,,2,1,0.6001,0,37,37,37,1,2,NEW,SIMILAR,,,,,,,,
,,,,,,,,,,,,,,,,TestWords/GA_MU_ZI.wav,,601d69a993d94008fb2b25dc,2021-07-19_17h11.16.345,Agingstudy,2020.2.10,Win32,60,,,,,B,,,,,,,,,,,,,,,1,1,1.1248,0,38,38,38,1,1,OLD,OLD,,,,,,,,
,,,,,,,,,,,,,,,,TestWords/MO_PU_DAY.wav,,601d69a993d94008fb2b25dc,2021-07-19_17h11.16.345,Agingstudy,2020.2.10,Win32,60,,,,,B,,,,,,,,,,,,,,,2,1,0.7564,0,39,39,39,1,2,NEW,SIMILAR,,,,,,,,
,,,,,,,,,,,,,,,,TestWords/DAI_RU_CHI.wav,,601d69a993d94008fb2b25dc,2021-07-19_17h11.16.345,Agingstudy,2020.2.10,Win32,60,,,,,B,,,,,,,,,,,,,,,2,0,1.2683,0,40,40,40,1,1,OLD,OLD,,,,,,,,
,,,,,,,,,,,,,,,,TestWords/SA_GI_TAI.wav,,601d69a993d94008fb2b25dc,2021-07-19_17h11.16.345,Agingstudy,2020.2.10,Win32,60,,,,,B,,,,,,,,,,,,,,,2,1,1.1855,0,41,41,41,1,2,NEW,SIMILAR,,,,,,,,
,,,,,,,,,,,,,,,,TestWords/KO_SU_FAI.wav,,601d69a993d94008fb2b25dc,2021-07-19_17h11.16.345,Agingstudy,2020.2.10,Win32,60,,,,,B,,,,,,,,,,,,,,,2,0,0.6691,0,42,42,42,1,1,OLD,OLD,,,,,,,,
,,,,,,,,,,,,,,,,TestWords/ZO_FU_RAI.wav,,601d69a993d94008fb2b25dc,2021-07-19_17h11.16.345,Agingstudy,2020.2.10,Win32,60,,,,,B,,,,,,,,,,,,,,,2,1,3.7906,0,43,43,43,1,2,NEW,SIMILAR,,,,,,,,
,,,,,,,,,,,,,,,,TestWords/KAI_LAY_TA.wav,,601d69a993d94008fb2b25dc,2021-07-19_17h11.16.345,Agingstudy,2020.2.10,Win32,60,,,,,B,,,,,,,,,,,,,,,1,1,1.486,0,44,44,44,1,1,OLD,OLD,,,,,,,,
,,,,,,,,,,,,,,,,TestWords/RAY_PA_TI.wav,,601d69a993d94008fb2b25dc,2021-07-19_17h11.16.345,Agingstudy,2020.2.10,Win32,60,,,,,B,,,,,,,,,,,,,,,1,1,0.6723,0,45,45,45,1,1,OLD,OLD,,,,,,,,
,,,,,,,,,,,,,,,,TestWords/DAI_RU_CHI.wav,,601d69a993d94008fb2b25dc,2021-07-19_17h11.16.345,Agingstudy,2020.2.10,Win32,60,,,,,B,,,,,,,,,,,,,,,1,1,0.6753,0,46,46,46,1,1,OLD,OLD,,,,,,,,
,,,,,,,,,,,,,,,,TestWords/VU_NA_WAI.wav,,601d69a993d94008fb2b25dc,2021-07-19_17h11.16.345,Agingstudy,2020.2.10,Win32,60,,,,,B,,,,,,,,,,,,,,,2,1,0.7018,0,47,47,47,1,2,NEW,SIMILAR,,,,,,,,
,,,,,,,,,,,,,,,,TestWords/TAI_GI_SA.wav,,601d69a993d94008fb2b25dc,2021-07-19_17h11.16.345,Agingstudy,2020.2.10,Win32,60,,,,,B,,,,,,,,,,,,,,,2,1,2.6543,0,48,48,48,1,2,NEW,SIMILAR,,,,,,,,
,,,,,,,,,,,,,,,,TestWords/GA_MU_ZI.wav,,601d69a993d94008fb2b25dc,2021-07-19_17h11.16.345,Agingstudy,2020.2.10,Win32,60,,,,,B,,,,,,,,,,,,,,,1,1,0.8177,0,49,49,49,1,1,OLD,OLD,,,,,,,,
,,,,,,,,,,,,,,,,TestWords/KO_SU_FAI.wav,,601d69a993d94008fb2b25dc,2021-07-19_17h11.16.345,Agingstudy,2020.2.10,Win32,60,,,,,B,,,,,,,,,,,,,,,2,0,2.4251,0,50,50,50,1,1,OLD,OLD,,,,,,,,
,,,,,,,,,,,,,,,,TestWords/KAI_LAY_TA.wav,,601d69a993d94008fb2b25dc,2021-07-19_17h11.16.345,Agingstudy,2020.2.10,Win32,60,,,,,B,,,,,,,,,,,,,,,2,0,1.7437,0,51,51,51,1,1,OLD,OLD,,,,,,,,
,,,,,,,,,,,,,,,,TestWords/HA_SI_JAI.wav,,601d69a993d94008fb2b25dc,2021-07-19_17h11.16.345,Agingstudy,2020.2.10,Win32,60,,,,,B,,,,,,,,,,,,,,,2,1,0.7707,0,52,52,52,1,2,NEW,NEW,,,,,,,,
,,,,,,,,,,,,,,,,TestWords/RAY_PA_TI.wav,,601d69a993d94008fb2b25dc,2021-07-19_17h11.16.345,Agingstudy,2020.2.10,Win32,60,,,,,B,,,,,,,,,,,,,,,1,1,0.3201,0,53,53,53,1,1,OLD,OLD,,,,,,,,
,,,,,,,,,,,,,,,,TestWords/VU_WAI_NA.wav,,601d69a993d94008fb2b25dc,2021-07-19_17h11.16.345,Agingstudy,2020.2.10,Win32,60,,,,,B,,,,,,,,,,,,,,,1,0,4.0122,0,54,54,54,1,2,NEW,SIMILAR,,,,,,,,
,,,,,,,,,,,,,,,,TestWords/DAI_RU_CHI.wav,,601d69a993d94008fb2b25dc,2021-07-19_17h11.16.345,Agingstudy,2020.2.10,Win32,60,,,,,B,,,,,,,,,,,,,,,1,1,1.3397,0,55,55,55,1,1,OLD,OLD,,,,,,,,
,,,,,,,,,,,,,,,,TestWords/GA_MU_ZI.wav,,601d69a993d94008fb2b25dc,2021-07-19_17h11.16.345,Agingstudy,2020.2.10,Win32,60,,,,,B,,,,,,,,,,,,,,,1,1,0.6418,0,56,56,56,1,1,OLD,OLD,,,,,,,,
,,,,,,,,,,,,,,,,TestWords/KAI_LAY_TA.wav,,601d69a993d94008fb2b25dc,2021-07-19_17h11.16.345,Agingstudy,2020.2.10,Win32,60,,,,,B,,,,,,,,,,,,,,,1,1,2.3873,0,57,57,57,1,1,OLD,OLD,,,,,,,,
,,,,,,,,,,,,,,,,TestWords/NU_CHAY_SO.wav,,601d69a993d94008fb2b25dc,2021-07-19_17h11.16.345,Agingstudy,2020.2.10,Win32,60,,,,,B,,,,,,,,,,,,,,,2,1,0.3863,0,58,58,58,1,2,NEW,NEW,,,,,,,,
,,,,,,,,,,,,,,,,TestWords/KO_SU_FAI.wav,,601d69a993d94008fb2b25dc,2021-07-19_17h11.16.345,Agingstudy,2020.2.10,Win32,60,,,,,B,,,,,,,,,,,,,,,2,0,1.8766,0,59,59,59,1,1,OLD,OLD,,,,,,,,
,,,,,,,,,,,,,,,,TestWords/RAY_PA_TI.wav,,601d69a993d94008fb2b25dc,2021-07-19_17h11.16.345,Agingstudy,2020.2.10,Win32,60,,,,,B,,,,,,,,,,,,,,,1,1,0.4372,0,60,60,60,1,1,OLD,OLD,,,,,,,,
,,,,,,,,,,,,,,,,TestWords/BA_KAY_LI.wav,,601d69a993d94008fb2b25dc,2021-07-19_17h11.16.345,Agingstudy,2020.2.10,Win32,60,,,,,B,,,,,,,,,,,,,,,2,1,0.9256,0,61,61,61,1,2,NEW,NEW,,,,,,,,
,,,,,,,,,,,,,,,,TestWords/KAI_LAY_TA.wav,,601d69a993d94008fb2b25dc,2021-07-19_17h11.16.345,Agingstudy,2020.2.10,Win32,60,,,,,B,,,,,,,,,,,,,,,1,1,1.52,0,62,62,62,1,1,OLD,OLD,,,,,,,,
,,,,,,,,,,,,,,,,TestWords/NA_VU_WAI.wav,,601d69a993d94008fb2b25dc,2021-07-19_17h11.16.345,Agingstudy,2020.2.10,Win32,60,,,,,B,,,,,,,,,,,,,,,2,1,2.37,0,63,63,63,1,2,NEW,SIMILAR,,,,,,,,
,,,,,,,,,,,,,,,,TestWords/GA_MU_ZI.wav,,601d69a993d94008fb2b25dc,2021-07-19_17h11.16.345,Agingstudy,2020.2.10,Win32,60,,,,,B,,,,,,,,,,,,,,,1,1,0.618,0,64,64,64,1,1,OLD,OLD,,,,,,,,
,,,,,,,,,,,,,,,,TestWords/KO_SU_FAI.wav,,601d69a993d94008fb2b25dc,2021-07-19_17h11.16.345,Agingstudy,2020.2.10,Win32,60,,,,,B,,,,,,,,,,,,,,,1,1,1.5713,0,65,65,65,1,1,OLD,OLD,,,,,,,,
,,,,,,,,,,,,,,,,TestWords/DAI_RU_CHI.wav,,601d69a993d94008fb2b25dc,2021-07-19_17h11.16.345,Agingstudy,2020.2.10,Win32,60,,,,,B,,,,,,,,,,,,,,,1,1,2.989,0,66,66,66,1,1,OLD,OLD,,,,,,,,
,,,,,,,,,,,,,,,,TestWords/GU_CHAI_PI.wav,,601d69a993d94008fb2b25dc,2021-07-19_17h11.16.345,Agingstudy,2020.2.10,Win32,60,,,,,B,,,,,,,,,,,,,,,2,1,0.351,0,67,67,67,1,2,NEW,NEW,,,,,,,,
,,,,,,,,,,,,,,,,TestWords/RAY_PA_TI.wav,,601d69a993d94008fb2b25dc,2021-07-19_17h11.16.345,Agingstudy,2020.2.10,Win32,60,,,,,B,,,,,,,,,,,,,,,1,1,0.5178,0,68,68,68,1,1,OLD,OLD,,,,,,,,
,,,,,,,,,,,,,,,,TestWords/KAY_LI_BA.wav,,601d69a993d94008fb2b25dc,2021-07-19_17h11.16.345,Agingstudy,2020.2.10,Win32,60,,,,,B,,,,,,,,,,,,,,,2,1,1.1187,0,69,69,69,1,2,NEW,SIMILAR,,,,,,,,
,,,,,,,,,,,,,,,,TestWords/KAI_LAY_TA.wav,,601d69a993d94008fb2b25dc,2021-07-19_17h11.16.345,Agingstudy,2020.2.10,Win32,60,,,,,B,,,,,,,,,,,,,,,2,0,1.3435,0,70,70,70,1,1,OLD,OLD,,,,,,,,
,,,,,,,,,,,,,,,,TestWords/KO_SU_FAI.wav,,601d69a993d94008fb2b25dc,2021-07-19_17h11.16.345,Agingstudy,2020.2.10,Win32,60,,,,,B,,,,,,,,,,,,,,,1,1,0.6565,0,71,71,71,1,1,OLD,OLD,,,,,,,,
,,,,,,,,,,,,,,,,TestWords/DAI_RU_CHI.wav,,601d69a993d94008fb2b25dc,2021-07-19_17h11.16.345,Agingstudy,2020.2.10,Win32,60,,,,,B,,,,,,,,,,,,,,,1,1,0.6436,0,72,72,72,1,1,OLD,OLD,,,,,,,,
,,,,,,,,,,,,,,,,TestWords/NA_WAI_VU.wav,,601d69a993d94008fb2b25dc,2021-07-19_17h11.16.345,Agingstudy,2020.2.10,Win32,60,,,,,B,,,,,,,,,,,,,,,2,1,0.8788,0,73,73,73,1,2,NEW,SIMILAR,,,,,,,,
,,,,,,,,,,,,,,,,TestWords/GA_MU_ZI.wav,,601d69a993d94008fb2b25dc,2021-07-19_17h11.16.345,Agingstudy,2020.2.10,Win32,60,,,,,B,,,,,,,,,,,,,,,1,1,1.9444,0,74,74,74,1,1,OLD,OLD,,,,,,,,
,,,,,,,,,,,,,,,,TestWords/KAY_BA_LI.wav,,601d69a993d94008fb2b25dc,2021-07-19_17h11.16.345,Agingstudy,2020.2.10,Win32,60,,,,,B,,,,,,,,,,,,,,,2,1,1.102,0,75,75,75,1,2,NEW,SIMILAR,,,,,,,,
,,,,,,,,,,,,,,,,TestWords/WAI_RO_JU.wav,,601d69a993d94008fb2b25dc,2021-07-19_17h11.16.345,Agingstudy,2020.2.10,Win32,60,,,,,B,,,,,,,,,,,,,,,2,1,0.7572,0,76,76,76,1,2,NEW,NEW,,,,,,,,
,,,,,,,,,,,,,,,,TestWords/RAY_PA_TI.wav,,601d69a993d94008fb2b25dc,2021-07-19_17h11.16.345,Agingstudy,2020.2.10,Win32,60,,,,,B,,,,,,,,,,,,,,,1,1,0.4604,0,77,77,77,1,1,OLD,OLD,,,,,,,,
,,,,,,,,,,,,,,,,TestWords/KAI_LAY_TA.wav,,601d69a993d94008fb2b25dc,2021-07-19_17h11.16.345,Agingstudy,2020.2.10,Win32,60,,,,,B,,,,,,,,,,,,,,,1,1,2.1718,0,78,78,78,1,1,OLD,OLD,,,,,,,,
,,,,,,,,,,,,,,,,TestWords/HI_NAY_VA.wav,,601d69a993d94008fb2b25dc,2021-07-19_17h11.16.345,Agingstudy,2020.2.10,Win32,60,,,,,B,,,,,,,,,,,,,,,2,1,0.3176,0,79,79,79,1,2,NEW,NEW,,,,,,,,
,,,,,,,,,,,,,,,,TestWords/KO_SU_FAI.wav,,601d69a993d94008fb2b25dc,2021-07-19_17h11.16.345,Agingstudy,2020.2.10,Win32,60,,,,,B,,,,,,,,,,,,,,,2,0,1.8723,0,80,80,80,1,1,OLD,OLD,,,,,,,,
,,,,,,,,,,,,,,,,TestWords/GA_MU_ZI.wav,,601d69a993d94008fb2b25dc,2021-07-19_17h11.16.345,Agingstudy,2020.2.10,Win32,60,,,,,B,,,,,,,,,,,,,,,1,1,0.852,0,81,81,81,1,1,OLD,OLD,,,,,,,,
,,,,,,,,,,,,,,,,TestWords/KAI_LAY_TA.wav,,601d69a993d94008fb2b25dc,2021-07-19_17h11.16.345,Agingstudy,2020.2.10,Win32,60,,,,,B,,,,,,,,,,,,,,,2,0,1.1608,0,82,82,82,1,1,OLD,OLD,,,,,,,,
,,,,,,,,,,,,,,,,TestWords/LI_BA_KAY.wav,,601d69a993d94008fb2b25dc,2021-07-19_17h11.16.345,Agingstudy,2020.2.10,Win32,60,,,,,B,,,,,,,,,,,,,,,2,1,0.7685,0,83,83,83,1,2,NEW,SIMILAR,,,,,,,,
,,,,,,,,,,,,,,,,TestWords/DAI_RU_CHI.wav,,601d69a993d94008fb2b25dc,2021-07-19_17h11.16.345,Agingstudy,2020.2.10,Win32,60,,,,,B,,,,,,,,,,,,,,,1,1,2.8686,0,84,84,84,1,1,OLD,OLD,,,,,,,,
,,,,,,,,,,,,,,,,TestWords/KO_SU_FAI.wav,,601d69a993d94008fb2b25dc,2021-07-19_17h11.16.345,Agingstudy,2020.2.10,Win32,60,,,,,B,,,,,,,,,,,,,,,1,1,1.254,0,85,85,85,1,1,OLD,OLD,,,,,,,,
,,,,,,,,,,,,,,,,TestWords/NO_WA_BAY.wav,,601d69a993d94008fb2b25dc,2021-07-19_17h11.16.345,Agingstudy,2020.2.10,Win32,60,,,,,B,,,,,,,,,,,,,,,2,1,1.1196,0,86,86,86,1,2,NEW,NEW,,,,,,,,
,,,,,,,,,,,,,,,,TestWords/KAI_LAY_TA.wav,,601d69a993d94008fb2b25dc,2021-07-19_17h11.16.345,Agingstudy,2020.2.10,Win32,60,,,,,B,,,,,,,,,,,,,,,2,0,0.7936,0,87,87,87,1,1,OLD,OLD,,,,,,,,
,,,,,,,,,,,,,,,,TestWords/GA_MU_ZI.wav,,601d69a993d94008fb2b25dc,2021-07-19_17h11.16.345,Agingstudy,2020.2.10,Win32,60,,,,,B,,,,,,,,,,,,,,,1,1,2.4523,0,88,88,88,1,1,OLD,OLD,,,,,,,,
,,,,,,,,,,,,,,,,TestWords/DAI_RU_CHI.wav,,601d69a993d94008fb2b25dc,2021-07-19_17h11.16.345,Agingstudy,2020.2.10,Win32,60,,,,,B,,,,,,,,,,,,,,,1,1,3.0881,0,89,89,89,1,1,OLD,OLD,,,,,,,,
,,,,,,,,,,,,,,,,TestWords/LA_ZAY_CHAI.wav,,601d69a993d94008fb2b25dc,2021-07-19_17h11.16.345,Agingstudy,2020.2.10,Win32,60,,,,,B,,,,,,,,,,,,,,,2,1,0.6399,0,90,90,90,1,2,NEW,NEW,,,,,,,,
,,,,,,,,,,,,,,,,TestWords/BA_LI_KAY.wav,,601d69a993d94008fb2b25dc,2021-07-19_17h11.16.345,Agingstudy,2020.2.10,Win32,60,,,,,B,,,,,,,,,,,,,,,2,1,0.5251,0,91,91,91,1,2,NEW,SIMILAR,,,,,,,,
,,,,,,,,,,,,,,,,TestWords/PAI_LU_WA.wav,,601d69a993d94008fb2b25dc,2021-07-19_17h11.16.345,Agingstudy,2020.2.10,Win32,60,,,,,B,,,,,,,,,,,,,,,2,1,0.6012,0,92,92,92,1,2,NEW,NEW,,,,,,,,
,,,,,,,,,,,,,,,,TestWords/KO_SU_FAI.wav,,601d69a993d94008fb2b25dc,2021-07-19_17h11.16.345,Agingstudy,2020.2.10,Win32,60,,,,,B,,,,,,,,,,,,,,,2,0,7.0412,0,93,93,93,1,1,OLD,OLD,,,,,,,,
,,,,,,,,,,,,,,,,TestWords/KAI_LAY_TA.wav,,601d69a993d94008fb2b25dc,2021-07-19_17h11.16.345,Agingstudy,2020.2.10,Win32,60,,,,,B,,,,,,,,,,,,,,,1,1,1.0035,0,94,94,94,1,1,OLD,OLD,,,,,,,,
,,,,,,,,,,,,,,,,TestWords/VAI_HO_LA.wav,,601d69a993d94008fb2b25dc,2021-07-19_17h11.16.345,Agingstudy,2020.2.10,Win32,60,,,,,B,,,,,,,,,,,,,,,2,1,0.5533,0,95,95,95,1,2,NEW,NEW,,,,,,,,
,,,,,,,,,,,,,,,,TestWords/GA_MU_ZI.wav,,601d69a993d94008fb2b25dc,2021-07-19_17h11.16.345,Agingstudy,2020.2.10,Win32,60,,,,,B,,,,,,,,,,,,,,,2,0,1.6532,0,96,96,96,1,1,OLD,OLD,,,,,,,,
,,,,,,,,,,,,,,,,TestWords/LI_KAY_BA.wav,,601d69a993d94008fb2b25dc,2021-07-19_17h11.16.345,Agingstudy,2020.2.10,Win32,60,,,,,B,,,,,,,,,,,,,,,1,0,2.6452,0,97,97,97,1,2,NEW,SIMILAR,,,,,,,,
,,,,,,,,,,,,,,,,TestWords/KAI_LAY_TA.wav,,601d69a993d94008fb2b25dc,2021-07-19_17h11.16.345,Agingstudy,2020.2.10,Win32,60,,,,,B,,,,,,,,,,,,,,,2,0,2.9638,0,98,98,98,1,1,OLD,OLD,,,,,,,,
,,,,,,,,,,,,,,,,TestWords/SI_VAI_CHU.wav,,601d69a993d94008fb2b25dc,2021-07-19_17h11.16.345,Agingstudy,2020.2.10,Win32,60,,,,,B,,,,,,,,,,,,,,,2,1,1.0881,0,99,99,99,1,2,NEW,NEW,,,,,,,,
,,,,,,,,,,,,,,,,,,601d69a993d94008fb2b25dc,2021-07-19_17h11.16.345,Agingstudy,2020.2.10,Win32,60,,,,,,,,,,,,,,,,,,,,,,,,,,,,,,,0,0,0,0,1,,,
,,,,,,,,,,,,,,,,,,601d69a993d94008fb2b25dc,2021-07-19_17h11.16.345,Agingstudy,2020.2.10,Win32,60,,,,,,,,,,,,,,,,,,,,,,,,,,,,,,,,,,,,return,26.1364,
