Welcome0Continue.keys,Welcome0Continue.rt,SoundCheckBegin.keys,SoundCheckBegin.rt,SoundCheckEndKey.keys,SoundCheckEndKey.rt,HeadphoneContinueKey.keys,HeadphoneContinueKey.rt,CheckResp.keys,CheckResp.corr,CheckResp.rt,HeadphoneLoop.thisRepN,HeadphoneLoop.thisTrialN,HeadphoneLoop.thisN,HeadphoneLoop.thisIndex,HeadphoneLoop.ran,File,Correct,participant,date,expName,psychopyVersion,OS,frameRate,ContinueKey8.keys,ContinueKey8.rt,MSTWelcomeContKey.keys,MSTWelcomeContKey.rt,Condition,MSTTrainIntroKey.keys,MSTTrainIntroKey.rt,MSTTrainKeys.keys,MSTTrainKeys.corr,MSTTrainKeys.rt,MSTTrainLoop.thisRepN,MSTTrainLoop.thisTrialN,MSTTrainLoop.thisN,MSTTrainLoop.thisIndex,MSTTrainLoop.ran,SoundFile,Type,MSTTestBeginKey.keys,MSTTestBeginKey.rt,MST_resp.keys,MST_resp.corr,MST_resp.rt,MSTPlayLoop.thisRepN,MSTPlayLoop.thisTrialN,MSTPlayLoop.thisN,MSTPlayLoop.thisIndex,MSTPlayLoop.ran,WordCorrect,Correct_type,WordType,MSTLoop.thisRepN,MSTLoop.thisTrialN,MSTLoop.thisN,MSTLoop.thisIndex,MSTLoop.ran,EndAllKey.keys,EndAllKey.rt,FeedbackResp.text
space,21.1257,space,7.3374,space,7.807,space,66.4415,3,1,4.9362,0,0,0,5,1,Headphone/t3_2.wav,3,604822031f4666160f00b04a,2021-11-02_14h07.59.173,Agingstudy,2020.2.10,Win32,60,,,,,,,,,,,,,,,,,,,,,,,,,,,,,,,,,,,,,,
,,,,,,,,2,1,1.8522,0,1,1,2,1,Headphone/t2_1.wav,2,604822031f4666160f00b04a,2021-11-02_14h07.59.173,Agingstudy,2020.2.10,Win32,60,,,,,,,,,,,,,,,,,,,,,,,,,,,,,,,,,,,,,,
,,,,,,,,3,1,1.8418,0,2,2,4,1,Headphone/t3_1.wav,3,604822031f4666160f00b04a,2021-11-02_14h07.59.173,Agingstudy,2020.2.10,Win32,60,,,,,,,,,,,,,,,,,,,,,,,,,,,,,,,,,,,,,,
,,,,,,,,1,1,1.2466,0,3,3,0,1,Headphone/t1_1.wav,1,604822031f4666160f00b04a,2021-11-02_14h07.59.173,Agingstudy,2020.2.10,Win32,60,,,,,,,,,,,,,,,,,,,,,,,,,,,,,,,,,,,,,,
,,,,,,,,1,1,1.6132,0,4,4,1,1,Headphone/t1_2.wav,1,604822031f4666160f00b04a,2021-11-02_14h07.59.173,Agingstudy,2020.2.10,Win32,60,,,,,,,,,,,,,,,,,,,,,,,,,,,,,,,,,,,,,,
,,,,,,,,2,1,1.3563,0,5,5,3,1,Headphone/t2_2.wav,2,604822031f4666160f00b04a,2021-11-02_14h07.59.173,Agingstudy,2020.2.10,Win32,60,,,,,,,,,,,,,,,,,,,,,,,,,,,,,,,,,,,,,,
,,,,,,,,,,,,,,,,,2,604822031f4666160f00b04a,2021-11-02_14h07.59.173,Agingstudy,2020.2.10,Win32,60,space,45.0204,space,9.6273,1,space,6.945,2,1,9.6959,0,0,0,0,1,Training/FO_YI_LAY.wav,NEW,,,,,,,,,,,,,,,,,,,,,
,,,,,,,,,,,,,,,,,1,604822031f4666160f00b04a,2021-11-02_14h07.59.173,Agingstudy,2020.2.10,Win32,60,,,,,,,,1,1,3.9125,0,1,1,1,1,Training/FO_YI_LAY.wav,OLD,,,,,,,,,,,,,,,,,,,,,
,,,,,,,,,,,,,,,,,2,604822031f4666160f00b04a,2021-11-02_14h07.59.173,Agingstudy,2020.2.10,Win32,60,,,,,,,,2,1,4.5228,0,2,2,2,1,Training/YO_BU_JAY.wav,NEW,,,,,,,,,,,,,,,,,,,,,
,,,,,,,,,,,,,,,,,2,604822031f4666160f00b04a,2021-11-02_14h07.59.173,Agingstudy,2020.2.10,Win32,60,,,,,,,,2,1,2.0949,0,3,3,3,1,Training/JAY_YO_BU.wav,SIMILAR,,,,,,,,,,,,,,,,,,,,,
,,,,,,,,,,,,,,,,,1,604822031f4666160f00b04a,2021-11-02_14h07.59.173,Agingstudy,2020.2.10,Win32,60,,,,,,,,1,1,1.1863,0,4,4,4,1,Training/FO_YI_LAY.wav,OLD,,,,,,,,,,,,,,,,,,,,,
,,,,,,,,,,,,,,,,TestWords/LU_HAI_BO.wav,,604822031f4666160f00b04a,2021-11-02_14h07.59.173,Agingstudy,2020.2.10,Win32,60,,,,,B,,,,,,,,,,,,,space,6.9903,2,1,4.1763,0,0,0,0,1,2,NEW,NEW,,,,,,,,
,,,,,,,,,,,,,,,,TestWords/CHU_LA_PAY.wav,,604822031f4666160f00b04a,2021-11-02_14h07.59.173,Agingstudy,2020.2.10,Win32,60,,,,,B,,,,,,,,,,,,,,,2,1,2.0436,0,1,1,1,1,2,NEW,NEW,,,,,,,,
,,,,,,,,,,,,,,,,TestWords/RAY_PA_TI.wav,,604822031f4666160f00b04a,2021-11-02_14h07.59.173,Agingstudy,2020.2.10,Win32,60,,,,,B,,,,,,,,,,,,,,,2,1,2.0348,0,2,2,2,1,2,NEW,NEW,,,,,,,,
,,,,,,,,,,,,,,,,TestWords/DA_CHU_VAI.wav,,604822031f4666160f00b04a,2021-11-02_14h07.59.173,Agingstudy,2020.2.10,Win32,60,,,,,B,,,,,,,,,,,,,,,2,1,1.8357,0,3,3,3,1,2,NEW,NEW,,,,,,,,
,,,,,,,,,,,,,,,,TestWords/DAY_PU_MO.wav,,604822031f4666160f00b04a,2021-11-02_14h07.59.173,Agingstudy,2020.2.10,Win32,60,,,,,B,,,,,,,,,,,,,,,1,0,1.62,0,4,4,4,1,2,NEW,NEW,,,,,,,,
,,,,,,,,,,,,,,,,TestWords/DAI_RU_CHI.wav,,604822031f4666160f00b04a,2021-11-02_14h07.59.173,Agingstudy,2020.2.10,Win32,60,,,,,B,,,,,,,,,,,,,,,1,0,1.341,0,5,5,5,1,2,NEW,NEW,,,,,,,,
,,,,,,,,,,,,,,,,TestWords/RAI_ZO_FU.wav,,604822031f4666160f00b04a,2021-11-02_14h07.59.173,Agingstudy,2020.2.10,Win32,60,,,,,B,,,,,,,,,,,,,,,2,1,0.889,0,6,6,6,1,2,NEW,NEW,,,,,,,,
,,,,,,,,,,,,,,,,TestWords/HO_NAY_VA.wav,,604822031f4666160f00b04a,2021-11-02_14h07.59.173,Agingstudy,2020.2.10,Win32,60,,,,,B,,,,,,,,,,,,,,,2,1,1.8475,0,7,7,7,1,2,NEW,NEW,,,,,,,,
,,,,,,,,,,,,,,,,TestWords/RAY_PA_TI.wav,,604822031f4666160f00b04a,2021-11-02_14h07.59.173,Agingstudy,2020.2.10,Win32,60,,,,,B,,,,,,,,,,,,,,,1,1,1.5036,0,8,8,8,1,1,OLD,OLD,,,,,,,,
,,,,,,,,,,,,,,,,TestWords/DAY_MO_PU.wav,,604822031f4666160f00b04a,2021-11-02_14h07.59.173,Agingstudy,2020.2.10,Win32,60,,,,,B,,,,,,,,,,,,,,,1,0,2.7813,0,9,9,9,1,2,NEW,SIMILAR,,,,,,,,
,,,,,,,,,,,,,,,,TestWords/TAI_SA_GI.wav,,604822031f4666160f00b04a,2021-11-02_14h07.59.173,Agingstudy,2020.2.10,Win32,60,,,,,B,,,,,,,,,,,,,,,2,1,1.2642,0,10,10,10,1,2,NEW,NEW,,,,,,,,
,,,,,,,,,,,,,,,,TestWords/DAI_RU_CHI.wav,,604822031f4666160f00b04a,2021-11-02_14h07.59.173,Agingstudy,2020.2.10,Win32,60,,,,,B,,,,,,,,,,,,,,,2,0,3.256,0,11,11,11,1,1,OLD,OLD,,,,,,,,
,,,,,,,,,,,,,,,,TestWords/GA_MU_ZI.wav,,604822031f4666160f00b04a,2021-11-02_14h07.59.173,Agingstudy,2020.2.10,Win32,60,,,,,B,,,,,,,,,,,,,,,2,1,0.8074,0,12,12,12,1,2,NEW,NEW,,,,,,,,
,,,,,,,,,,,,,,,,TestWords/ZO_RAI_FU.wav,,604822031f4666160f00b04a,2021-11-02_14h07.59.173,Agingstudy,2020.2.10,Win32,60,,,,,B,,,,,,,,,,,,,,,2,1,1.0302,0,13,13,13,1,2,NEW,SIMILAR,,,,,,,,
,,,,,,,,,,,,,,,,TestWords/RAY_PA_TI.wav,,604822031f4666160f00b04a,2021-11-02_14h07.59.173,Agingstudy,2020.2.10,Win32,60,,,,,B,,,,,,,,,,,,,,,1,1,0.8742,0,14,14,14,1,1,OLD,OLD,,,,,,,,
,,,,,,,,,,,,,,,,TestWords/FI_GU_CHA.wav,,604822031f4666160f00b04a,2021-11-02_14h07.59.173,Agingstudy,2020.2.10,Win32,60,,,,,B,,,,,,,,,,,,,,,2,1,1.0249,0,15,15,15,1,2,NEW,NEW,,,,,,,,
,,,,,,,,,,,,,,,,TestWords/MO_DAY_PU.wav,,604822031f4666160f00b04a,2021-11-02_14h07.59.173,Agingstudy,2020.2.10,Win32,60,,,,,B,,,,,,,,,,,,,,,1,0,0.874,0,16,16,16,1,2,NEW,SIMILAR,,,,,,,,
,,,,,,,,,,,,,,,,TestWords/GI_SA_TAI.wav,,604822031f4666160f00b04a,2021-11-02_14h07.59.173,Agingstudy,2020.2.10,Win32,60,,,,,B,,,,,,,,,,,,,,,1,0,3.1533,0,17,17,17,1,2,NEW,SIMILAR,,,,,,,,
,,,,,,,,,,,,,,,,TestWords/FU_RAI_ZO.wav,,604822031f4666160f00b04a,2021-11-02_14h07.59.173,Agingstudy,2020.2.10,Win32,60,,,,,B,,,,,,,,,,,,,,,1,0,1.0367,0,18,18,18,1,2,NEW,SIMILAR,,,,,,,,
,,,,,,,,,,,,,,,,TestWords/DAI_RU_CHI.wav,,604822031f4666160f00b04a,2021-11-02_14h07.59.173,Agingstudy,2020.2.10,Win32,60,,,,,B,,,,,,,,,,,,,,,1,1,1.0445,0,19,19,19,1,1,OLD,OLD,,,,,,,,
,,,,,,,,,,,,,,,,TestWords/KO_SU_FAI.wav,,604822031f4666160f00b04a,2021-11-02_14h07.59.173,Agingstudy,2020.2.10,Win32,60,,,,,B,,,,,,,,,,,,,,,2,1,1.3088,0,20,20,20,1,2,NEW,NEW,,,,,,,,
,,,,,,,,,,,,,,,,TestWords/GA_MU_ZI.wav,,604822031f4666160f00b04a,2021-11-02_14h07.59.173,Agingstudy,2020.2.10,Win32,60,,,,,B,,,,,,,,,,,,,,,1,1,1.3622,0,21,21,21,1,1,OLD,OLD,,,,,,,,
,,,,,,,,,,,,,,,,TestWords/RAY_PA_TI.wav,,604822031f4666160f00b04a,2021-11-02_14h07.59.173,Agingstudy,2020.2.10,Win32,60,,,,,B,,,,,,,,,,,,,,,1,1,0.8173,0,22,22,22,1,1,OLD,OLD,,,,,,,,
,,,,,,,,,,,,,,,,TestWords/PU_DAY_MO.wav,,604822031f4666160f00b04a,2021-11-02_14h07.59.173,Agingstudy,2020.2.10,Win32,60,,,,,B,,,,,,,,,,,,,,,1,0,1.4234,0,23,23,23,1,2,NEW,SIMILAR,,,,,,,,
,,,,,,,,,,,,,,,,TestWords/GI_TAI_SA.wav,,604822031f4666160f00b04a,2021-11-02_14h07.59.173,Agingstudy,2020.2.10,Win32,60,,,,,B,,,,,,,,,,,,,,,2,1,0.8339,0,24,24,24,1,2,NEW,SIMILAR,,,,,,,,
,,,,,,,,,,,,,,,,TestWords/KO_SU_FAI.wav,,604822031f4666160f00b04a,2021-11-02_14h07.59.173,Agingstudy,2020.2.10,Win32,60,,,,,B,,,,,,,,,,,,,,,2,0,1.4807,0,25,25,25,1,1,OLD,OLD,,,,,,,,
,,,,,,,,,,,,,,,,TestWords/FU_ZO_RAI.wav,,604822031f4666160f00b04a,2021-11-02_14h07.59.173,Agingstudy,2020.2.10,Win32,60,,,,,B,,,,,,,,,,,,,,,2,1,5.3112,0,26,26,26,1,2,NEW,SIMILAR,,,,,,,,
,,,,,,,,,,,,,,,,TestWords/DAI_RU_CHI.wav,,604822031f4666160f00b04a,2021-11-02_14h07.59.173,Agingstudy,2020.2.10,Win32,60,,,,,B,,,,,,,,,,,,,,,1,1,0.7339,0,27,27,27,1,1,OLD,OLD,,,,,,,,
,,,,,,,,,,,,,,,,TestWords/RAY_PA_TI.wav,,604822031f4666160f00b04a,2021-11-02_14h07.59.173,Agingstudy,2020.2.10,Win32,60,,,,,B,,,,,,,,,,,,,,,1,1,0.5531,0,28,28,28,1,1,OLD,OLD,,,,,,,,
,,,,,,,,,,,,,,,,TestWords/GA_MU_ZI.wav,,604822031f4666160f00b04a,2021-11-02_14h07.59.173,Agingstudy,2020.2.10,Win32,60,,,,,B,,,,,,,,,,,,,,,1,1,0.5169,0,29,29,29,1,1,OLD,OLD,,,,,,,,
,,,,,,,,,,,,,,,,TestWords/WAI_VU_NA.wav,,604822031f4666160f00b04a,2021-11-02_14h07.59.173,Agingstudy,2020.2.10,Win32,60,,,,,B,,,,,,,,,,,,,,,2,1,0.8742,0,30,30,30,1,2,NEW,NEW,,,,,,,,
,,,,,,,,,,,,,,,,TestWords/SA_TAI_GI.wav,,604822031f4666160f00b04a,2021-11-02_14h07.59.173,Agingstudy,2020.2.10,Win32,60,,,,,B,,,,,,,,,,,,,,,2,1,0.8576,0,31,31,31,1,2,NEW,SIMILAR,,,,,,,,
,,,,,,,,,,,,,,,,TestWords/PU_MO_DAY.wav,,604822031f4666160f00b04a,2021-11-02_14h07.59.173,Agingstudy,2020.2.10,Win32,60,,,,,B,,,,,,,,,,,,,,,2,1,1.0891,0,32,32,32,1,2,NEW,SIMILAR,,,,,,,,
,,,,,,,,,,,,,,,,TestWords/KO_SU_FAI.wav,,604822031f4666160f00b04a,2021-11-02_14h07.59.173,Agingstudy,2020.2.10,Win32,60,,,,,B,,,,,,,,,,,,,,,2,0,1.5191,0,33,33,33,1,1,OLD,OLD,,,,,,,,
,,,,,,,,,,,,,,,,TestWords/RAI_FU_ZO.wav,,604822031f4666160f00b04a,2021-11-02_14h07.59.173,Agingstudy,2020.2.10,Win32,60,,,,,B,,,,,,,,,,,,,,,1,0,1.8922,0,34,34,34,1,2,NEW,SIMILAR,,,,,,,,
,,,,,,,,,,,,,,,,TestWords/KAI_LAY_TA.wav,,604822031f4666160f00b04a,2021-11-02_14h07.59.173,Agingstudy,2020.2.10,Win32,60,,,,,B,,,,,,,,,,,,,,,2,1,1.7065,0,35,35,35,1,2,NEW,NEW,,,,,,,,
,,,,,,,,,,,,,,,,TestWords/RAY_PA_TI.wav,,604822031f4666160f00b04a,2021-11-02_14h07.59.173,Agingstudy,2020.2.10,Win32,60,,,,,B,,,,,,,,,,,,,,,1,1,0.3759,0,36,36,36,1,1,OLD,OLD,,,,,,,,
,,,,,,,,,,,,,,,,TestWords/WAI_NA_VU.wav,,604822031f4666160f00b04a,2021-11-02_14h07.59.173,Agingstudy,2020.2.10,Win32,60,,,,,B,,,,,,,,,,,,,,,2,1,1.4434,0,37,37,37,1,2,NEW,SIMILAR,,,,,,,,
,,,,,,,,,,,,,,,,TestWords/GA_MU_ZI.wav,,604822031f4666160f00b04a,2021-11-02_14h07.59.173,Agingstudy,2020.2.10,Win32,60,,,,,B,,,,,,,,,,,,,,,1,1,0.6838,0,38,38,38,1,1,OLD,OLD,,,,,,,,
,,,,,,,,,,,,,,,,TestWords/MO_PU_DAY.wav,,604822031f4666160f00b04a,2021-11-02_14h07.59.173,Agingstudy,2020.2.10,Win32,60,,,,,B,,,,,,,,,,,,,,,1,0,0.8676,0,39,39,39,1,2,NEW,SIMILAR,,,,,,,,
,,,,,,,,,,,,,,,,TestWords/DAI_RU_CHI.wav,,604822031f4666160f00b04a,2021-11-02_14h07.59.173,Agingstudy,2020.2.10,Win32,60,,,,,B,,,,,,,,,,,,,,,1,1,0.5523,0,40,40,40,1,1,OLD,OLD,,,,,,,,
,,,,,,,,,,,,,,,,TestWords/SA_GI_TAI.wav,,604822031f4666160f00b04a,2021-11-02_14h07.59.173,Agingstudy,2020.2.10,Win32,60,,,,,B,,,,,,,,,,,,,,,1,0,1.4208,0,41,41,41,1,2,NEW,SIMILAR,,,,,,,,
,,,,,,,,,,,,,,,,TestWords/KO_SU_FAI.wav,,604822031f4666160f00b04a,2021-11-02_14h07.59.173,Agingstudy,2020.2.10,Win32,60,,,,,B,,,,,,,,,,,,,,,2,0,1.1508,0,42,42,42,1,1,OLD,OLD,,,,,,,,
,,,,,,,,,,,,,,,,TestWords/ZO_FU_RAI.wav,,604822031f4666160f00b04a,2021-11-02_14h07.59.173,Agingstudy,2020.2.10,Win32,60,,,,,B,,,,,,,,,,,,,,,1,0,0.8088,0,43,43,43,1,2,NEW,SIMILAR,,,,,,,,
,,,,,,,,,,,,,,,,TestWords/KAI_LAY_TA.wav,,604822031f4666160f00b04a,2021-11-02_14h07.59.173,Agingstudy,2020.2.10,Win32,60,,,,,B,,,,,,,,,,,,,,,1,1,1.1339,0,44,44,44,1,1,OLD,OLD,,,,,,,,
,,,,,,,,,,,,,,,,TestWords/RAY_PA_TI.wav,,604822031f4666160f00b04a,2021-11-02_14h07.59.173,Agingstudy,2020.2.10,Win32,60,,,,,B,,,,,,,,,,,,,,,1,1,0.6234,0,45,45,45,1,1,OLD,OLD,,,,,,,,
,,,,,,,,,,,,,,,,TestWords/DAI_RU_CHI.wav,,604822031f4666160f00b04a,2021-11-02_14h07.59.173,Agingstudy,2020.2.10,Win32,60,,,,,B,,,,,,,,,,,,,,,1,1,0.9284,0,46,46,46,1,1,OLD,OLD,,,,,,,,
,,,,,,,,,,,,,,,,TestWords/VU_NA_WAI.wav,,604822031f4666160f00b04a,2021-11-02_14h07.59.173,Agingstudy,2020.2.10,Win32,60,,,,,B,,,,,,,,,,,,,,,2,1,1.2624,0,47,47,47,1,2,NEW,SIMILAR,,,,,,,,
,,,,,,,,,,,,,,,,TestWords/TAI_GI_SA.wav,,604822031f4666160f00b04a,2021-11-02_14h07.59.173,Agingstudy,2020.2.10,Win32,60,,,,,B,,,,,,,,,,,,,,,1,0,0.9016,0,48,48,48,1,2,NEW,SIMILAR,,,,,,,,
,,,,,,,,,,,,,,,,TestWords/GA_MU_ZI.wav,,604822031f4666160f00b04a,2021-11-02_14h07.59.173,Agingstudy,2020.2.10,Win32,60,,,,,B,,,,,,,,,,,,,,,1,1,0.7006,0,49,49,49,1,1,OLD,OLD,,,,,,,,
,,,,,,,,,,,,,,,,TestWords/KO_SU_FAI.wav,,604822031f4666160f00b04a,2021-11-02_14h07.59.173,Agingstudy,2020.2.10,Win32,60,,,,,B,,,,,,,,,,,,,,,2,0,0.9935,0,50,50,50,1,1,OLD,OLD,,,,,,,,
,,,,,,,,,,,,,,,,TestWords/KAI_LAY_TA.wav,,604822031f4666160f00b04a,2021-11-02_14h07.59.173,Agingstudy,2020.2.10,Win32,60,,,,,B,,,,,,,,,,,,,,,1,1,0.9723,0,51,51,51,1,1,OLD,OLD,,,,,,,,
,,,,,,,,,,,,,,,,TestWords/HA_SI_JAI.wav,,604822031f4666160f00b04a,2021-11-02_14h07.59.173,Agingstudy,2020.2.10,Win32,60,,,,,B,,,,,,,,,,,,,,,2,1,1.2555,0,52,52,52,1,2,NEW,NEW,,,,,,,,
,,,,,,,,,,,,,,,,TestWords/RAY_PA_TI.wav,,604822031f4666160f00b04a,2021-11-02_14h07.59.173,Agingstudy,2020.2.10,Win32,60,,,,,B,,,,,,,,,,,,,,,1,1,0.5841,0,53,53,53,1,1,OLD,OLD,,,,,,,,
,,,,,,,,,,,,,,,,TestWords/VU_WAI_NA.wav,,604822031f4666160f00b04a,2021-11-02_14h07.59.173,Agingstudy,2020.2.10,Win32,60,,,,,B,,,,,,,,,,,,,,,1,0,0.8007,0,54,54,54,1,2,NEW,SIMILAR,,,,,,,,
,,,,,,,,,,,,,,,,TestWords/DAI_RU_CHI.wav,,604822031f4666160f00b04a,2021-11-02_14h07.59.173,Agingstudy,2020.2.10,Win32,60,,,,,B,,,,,,,,,,,,,,,1,1,0.538,0,55,55,55,1,1,OLD,OLD,,,,,,,,
,,,,,,,,,,,,,,,,TestWords/GA_MU_ZI.wav,,604822031f4666160f00b04a,2021-11-02_14h07.59.173,Agingstudy,2020.2.10,Win32,60,,,,,B,,,,,,,,,,,,,,,1,1,0.303,0,56,56,56,1,1,OLD,OLD,,,,,,,,
,,,,,,,,,,,,,,,,TestWords/KAI_LAY_TA.wav,,604822031f4666160f00b04a,2021-11-02_14h07.59.173,Agingstudy,2020.2.10,Win32,60,,,,,B,,,,,,,,,,,,,,,1,1,1.6172,0,57,57,57,1,1,OLD,OLD,,,,,,,,
,,,,,,,,,,,,,,,,TestWords/NU_CHAY_SO.wav,,604822031f4666160f00b04a,2021-11-02_14h07.59.173,Agingstudy,2020.2.10,Win32,60,,,,,B,,,,,,,,,,,,,,,2,1,0.6382,0,58,58,58,1,2,NEW,NEW,,,,,,,,
,,,,,,,,,,,,,,,,TestWords/KO_SU_FAI.wav,,604822031f4666160f00b04a,2021-11-02_14h07.59.173,Agingstudy,2020.2.10,Win32,60,,,,,B,,,,,,,,,,,,,,,1,1,0.8671,0,59,59,59,1,1,OLD,OLD,,,,,,,,
,,,,,,,,,,,,,,,,TestWords/RAY_PA_TI.wav,,604822031f4666160f00b04a,2021-11-02_14h07.59.173,Agingstudy,2020.2.10,Win32,60,,,,,B,,,,,,,,,,,,,,,1,1,0.2864,0,60,60,60,1,1,OLD,OLD,,,,,,,,
,,,,,,,,,,,,,,,,TestWords/BA_KAY_LI.wav,,604822031f4666160f00b04a,2021-11-02_14h07.59.173,Agingstudy,2020.2.10,Win32,60,,,,,B,,,,,,,,,,,,,,,2,1,0.7891,0,61,61,61,1,2,NEW,NEW,,,,,,,,
,,,,,,,,,,,,,,,,TestWords/KAI_LAY_TA.wav,,604822031f4666160f00b04a,2021-11-02_14h07.59.173,Agingstudy,2020.2.10,Win32,60,,,,,B,,,,,,,,,,,,,,,1,1,1.768,0,62,62,62,1,1,OLD,OLD,,,,,,,,
,,,,,,,,,,,,,,,,TestWords/NA_VU_WAI.wav,,604822031f4666160f00b04a,2021-11-02_14h07.59.173,Agingstudy,2020.2.10,Win32,60,,,,,B,,,,,,,,,,,,,,,1,0,0.5182,0,63,63,63,1,2,NEW,SIMILAR,,,,,,,,
,,,,,,,,,,,,,,,,TestWords/GA_MU_ZI.wav,,604822031f4666160f00b04a,2021-11-02_14h07.59.173,Agingstudy,2020.2.10,Win32,60,,,,,B,,,,,,,,,,,,,,,1,1,0.3438,0,64,64,64,1,1,OLD,OLD,,,,,,,,
,,,,,,,,,,,,,,,,TestWords/KO_SU_FAI.wav,,604822031f4666160f00b04a,2021-11-02_14h07.59.173,Agingstudy,2020.2.10,Win32,60,,,,,B,,,,,,,,,,,,,,,1,1,1.0047,0,65,65,65,1,1,OLD,OLD,,,,,,,,
,,,,,,,,,,,,,,,,TestWords/DAI_RU_CHI.wav,,604822031f4666160f00b04a,2021-11-02_14h07.59.173,Agingstudy,2020.2.10,Win32,60,,,,,B,,,,,,,,,,,,,,,1,1,0.3582,0,66,66,66,1,1,OLD,OLD,,,,,,,,
,,,,,,,,,,,,,,,,TestWords/GU_CHAI_PI.wav,,604822031f4666160f00b04a,2021-11-02_14h07.59.173,Agingstudy,2020.2.10,Win32,60,,,,,B,,,,,,,,,,,,,,,1,0,1.1008,0,67,67,67,1,2,NEW,NEW,,,,,,,,
,,,,,,,,,,,,,,,,TestWords/RAY_PA_TI.wav,,604822031f4666160f00b04a,2021-11-02_14h07.59.173,Agingstudy,2020.2.10,Win32,60,,,,,B,,,,,,,,,,,,,,,1,1,0.2557,0,68,68,68,1,1,OLD,OLD,,,,,,,,
,,,,,,,,,,,,,,,,TestWords/KAY_LI_BA.wav,,604822031f4666160f00b04a,2021-11-02_14h07.59.173,Agingstudy,2020.2.10,Win32,60,,,,,B,,,,,,,,,,,,,,,2,1,1.4718,0,69,69,69,1,2,NEW,SIMILAR,,,,,,,,
,,,,,,,,,,,,,,,,TestWords/KAI_LAY_TA.wav,,604822031f4666160f00b04a,2021-11-02_14h07.59.173,Agingstudy,2020.2.10,Win32,60,,,,,B,,,,,,,,,,,,,,,1,1,1.6875,0,70,70,70,1,1,OLD,OLD,,,,,,,,
,,,,,,,,,,,,,,,,TestWords/KO_SU_FAI.wav,,604822031f4666160f00b04a,2021-11-02_14h07.59.173,Agingstudy,2020.2.10,Win32,60,,,,,B,,,,,,,,,,,,,,,1,1,0.758,0,71,71,71,1,1,OLD,OLD,,,,,,,,
,,,,,,,,,,,,,,,,TestWords/DAI_RU_CHI.wav,,604822031f4666160f00b04a,2021-11-02_14h07.59.173,Agingstudy,2020.2.10,Win32,60,,,,,B,,,,,,,,,,,,,,,1,1,0.3528,0,72,72,72,1,1,OLD,OLD,,,,,,,,
,,,,,,,,,,,,,,,,TestWords/NA_WAI_VU.wav,,604822031f4666160f00b04a,2021-11-02_14h07.59.173,Agingstudy,2020.2.10,Win32,60,,,,,B,,,,,,,,,,,,,,,1,0,0.4871,0,73,73,73,1,2,NEW,SIMILAR,,,,,,,,
,,,,,,,,,,,,,,,,TestWords/GA_MU_ZI.wav,,604822031f4666160f00b04a,2021-11-02_14h07.59.173,Agingstudy,2020.2.10,Win32,60,,,,,B,,,,,,,,,,,,,,,1,1,1.2382,0,74,74,74,1,1,OLD,OLD,,,,,,,,
,,,,,,,,,,,,,,,,TestWords/KAY_BA_LI.wav,,604822031f4666160f00b04a,2021-11-02_14h07.59.173,Agingstudy,2020.2.10,Win32,60,,,,,B,,,,,,,,,,,,,,,1,0,0.3267,0,75,75,75,1,2,NEW,SIMILAR,,,,,,,,
,,,,,,,,,,,,,,,,TestWords/WAI_RO_JU.wav,,604822031f4666160f00b04a,2021-11-02_14h07.59.173,Agingstudy,2020.2.10,Win32,60,,,,,B,,,,,,,,,,,,,,,1,0,0.8923,0,76,76,76,1,2,NEW,NEW,,,,,,,,
,,,,,,,,,,,,,,,,TestWords/RAY_PA_TI.wav,,604822031f4666160f00b04a,2021-11-02_14h07.59.173,Agingstudy,2020.2.10,Win32,60,,,,,B,,,,,,,,,,,,,,,1,1,0.2266,0,77,77,77,1,1,OLD,OLD,,,,,,,,
,,,,,,,,,,,,,,,,TestWords/KAI_LAY_TA.wav,,604822031f4666160f00b04a,2021-11-02_14h07.59.173,Agingstudy,2020.2.10,Win32,60,,,,,B,,,,,,,,,,,,,,,1,1,0.7882,0,78,78,78,1,1,OLD,OLD,,,,,,,,
,,,,,,,,,,,,,,,,TestWords/HI_NAY_VA.wav,,604822031f4666160f00b04a,2021-11-02_14h07.59.173,Agingstudy,2020.2.10,Win32,60,,,,,B,,,,,,,,,,,,,,,2,1,0.7588,0,79,79,79,1,2,NEW,NEW,,,,,,,,
,,,,,,,,,,,,,,,,TestWords/KO_SU_FAI.wav,,604822031f4666160f00b04a,2021-11-02_14h07.59.173,Agingstudy,2020.2.10,Win32,60,,,,,B,,,,,,,,,,,,,,,1,1,2.2909,0,80,80,80,1,1,OLD,OLD,,,,,,,,
,,,,,,,,,,,,,,,,TestWords/GA_MU_ZI.wav,,604822031f4666160f00b04a,2021-11-02_14h07.59.173,Agingstudy,2020.2.10,Win32,60,,,,,B,,,,,,,,,,,,,,,1,1,0.4338,0,81,81,81,1,1,OLD,OLD,,,,,,,,
,,,,,,,,,,,,,,,,TestWords/KAI_LAY_TA.wav,,604822031f4666160f00b04a,2021-11-02_14h07.59.173,Agingstudy,2020.2.10,Win32,60,,,,,B,,,,,,,,,,,,,,,1,1,0.7206,0,82,82,82,1,1,OLD,OLD,,,,,,,,
,,,,,,,,,,,,,,,,TestWords/LI_BA_KAY.wav,,604822031f4666160f00b04a,2021-11-02_14h07.59.173,Agingstudy,2020.2.10,Win32,60,,,,,B,,,,,,,,,,,,,,,1,0,0.7739,0,83,83,83,1,2,NEW,SIMILAR,,,,,,,,
,,,,,,,,,,,,,,,,TestWords/DAI_RU_CHI.wav,,604822031f4666160f00b04a,2021-11-02_14h07.59.173,Agingstudy,2020.2.10,Win32,60,,,,,B,,,,,,,,,,,,,,,1,1,0.3769,0,84,84,84,1,1,OLD,OLD,,,,,,,,
,,,,,,,,,,,,,,,,TestWords/KO_SU_FAI.wav,,604822031f4666160f00b04a,2021-11-02_14h07.59.173,Agingstudy,2020.2.10,Win32,60,,,,,B,,,,,,,,,,,,,,,1,1,0.9245,0,85,85,85,1,1,OLD,OLD,,,,,,,,
,,,,,,,,,,,,,,,,TestWords/NO_WA_BAY.wav,,604822031f4666160f00b04a,2021-11-02_14h07.59.173,Agingstudy,2020.2.10,Win32,60,,,,,B,,,,,,,,,,,,,,,2,1,1.2894,0,86,86,86,1,2,NEW,NEW,,,,,,,,
,,,,,,,,,,,,,,,,TestWords/KAI_LAY_TA.wav,,604822031f4666160f00b04a,2021-11-02_14h07.59.173,Agingstudy,2020.2.10,Win32,60,,,,,B,,,,,,,,,,,,,,,1,1,0.8504,0,87,87,87,1,1,OLD,OLD,,,,,,,,
,,,,,,,,,,,,,,,,TestWords/GA_MU_ZI.wav,,604822031f4666160f00b04a,2021-11-02_14h07.59.173,Agingstudy,2020.2.10,Win32,60,,,,,B,,,,,,,,,,,,,,,1,1,0.4174,0,88,88,88,1,1,OLD,OLD,,,,,,,,
,,,,,,,,,,,,,,,,TestWords/DAI_RU_CHI.wav,,604822031f4666160f00b04a,2021-11-02_14h07.59.173,Agingstudy,2020.2.10,Win32,60,,,,,B,,,,,,,,,,,,,,,1,1,0.4674,0,89,89,89,1,1,OLD,OLD,,,,,,,,
,,,,,,,,,,,,,,,,TestWords/LA_ZAY_CHAI.wav,,604822031f4666160f00b04a,2021-11-02_14h07.59.173,Agingstudy,2020.2.10,Win32,60,,,,,B,,,,,,,,,,,,,,,2,1,1.1928,0,90,90,90,1,2,NEW,NEW,,,,,,,,
,,,,,,,,,,,,,,,,TestWords/BA_LI_KAY.wav,,604822031f4666160f00b04a,2021-11-02_14h07.59.173,Agingstudy,2020.2.10,Win32,60,,,,,B,,,,,,,,,,,,,,,2,1,0.9007,0,91,91,91,1,2,NEW,SIMILAR,,,,,,,,
,,,,,,,,,,,,,,,,TestWords/PAI_LU_WA.wav,,604822031f4666160f00b04a,2021-11-02_14h07.59.173,Agingstudy,2020.2.10,Win32,60,,,,,B,,,,,,,,,,,,,,,2,1,0.7533,0,92,92,92,1,2,NEW,NEW,,,,,,,,
,,,,,,,,,,,,,,,,TestWords/KO_SU_FAI.wav,,604822031f4666160f00b04a,2021-11-02_14h07.59.173,Agingstudy,2020.2.10,Win32,60,,,,,B,,,,,,,,,,,,,,,1,1,0.6853,0,93,93,93,1,1,OLD,OLD,,,,,,,,
,,,,,,,,,,,,,,,,TestWords/KAI_LAY_TA.wav,,604822031f4666160f00b04a,2021-11-02_14h07.59.173,Agingstudy,2020.2.10,Win32,60,,,,,B,,,,,,,,,,,,,,,1,1,0.7506,0,94,94,94,1,1,OLD,OLD,,,,,,,,
,,,,,,,,,,,,,,,,TestWords/VAI_HO_LA.wav,,604822031f4666160f00b04a,2021-11-02_14h07.59.173,Agingstudy,2020.2.10,Win32,60,,,,,B,,,,,,,,,,,,,,,1,0,1.0079,0,95,95,95,1,2,NEW,NEW,,,,,,,,
,,,,,,,,,,,,,,,,TestWords/GA_MU_ZI.wav,,604822031f4666160f00b04a,2021-11-02_14h07.59.173,Agingstudy,2020.2.10,Win32,60,,,,,B,,,,,,,,,,,,,,,1,1,0.5699,0,96,96,96,1,1,OLD,OLD,,,,,,,,
,,,,,,,,,,,,,,,,TestWords/LI_KAY_BA.wav,,604822031f4666160f00b04a,2021-11-02_14h07.59.173,Agingstudy,2020.2.10,Win32,60,,,,,B,,,,,,,,,,,,,,,2,1,0.6854,0,97,97,97,1,2,NEW,SIMILAR,,,,,,,,
,,,,,,,,,,,,,,,,TestWords/KAI_LAY_TA.wav,,604822031f4666160f00b04a,2021-11-02_14h07.59.173,Agingstudy,2020.2.10,Win32,60,,,,,B,,,,,,,,,,,,,,,1,1,0.6922,0,98,98,98,1,1,OLD,OLD,,,,,,,,
,,,,,,,,,,,,,,,,TestWords/SI_VAI_CHU.wav,,604822031f4666160f00b04a,2021-11-02_14h07.59.173,Agingstudy,2020.2.10,Win32,60,,,,,B,,,,,,,,,,,,,,,2,1,0.8844,0,99,99,99,1,2,NEW,NEW,,,,,,,,
,,,,,,,,,,,,,,,,,,604822031f4666160f00b04a,2021-11-02_14h07.59.173,Agingstudy,2020.2.10,Win32,60,,,,,,,,,,,,,,,,,,,,,,,,,,,,,,,0,0,0,0,1,,,
,,,,,,,,,,,,,,,,,,604822031f4666160f00b04a,2021-11-02_14h07.59.173,Agingstudy,2020.2.10,Win32,60,,,,,,,,,,,,,,,,,,,,,,,,,,,,,,,,,,,,return,40.4382,
