Welcome0Continue.keys,Welcome0Continue.rt,SoundCheckBegin.keys,SoundCheckBegin.rt,SoundCheckEndKey.keys,SoundCheckEndKey.rt,HeadphoneContinueKey.keys,HeadphoneContinueKey.rt,CheckResp.keys,CheckResp.corr,CheckResp.rt,HeadphoneLoop.thisRepN,HeadphoneLoop.thisTrialN,HeadphoneLoop.thisN,HeadphoneLoop.thisIndex,HeadphoneLoop.ran,File,Correct,participant,date,expName,psychopyVersion,OS,frameRate,RepeatAgainKey.keys,RepeatAgainKey.rt,RepeatAgainLoop.thisRepN,RepeatAgainLoop.thisTrialN,RepeatAgainLoop.thisN,RepeatAgainLoop.thisIndex,RepeatAgainLoop.ran,Headphone_retest.thisRepN,Headphone_retest.thisTrialN,Headphone_retest.thisN,Headphone_retest.thisIndex,Headphone_retest.ran,ContinueKey8.keys,ContinueKey8.rt,MSTWelcomeContKey.keys,MSTWelcomeContKey.rt,Condition,MSTTrainIntroKey.keys,MSTTrainIntroKey.rt,MSTTrainKeys.keys,MSTTrainKeys.corr,MSTTrainKeys.rt,MSTTrainLoop.thisRepN,MSTTrainLoop.thisTrialN,MSTTrainLoop.thisN,MSTTrainLoop.thisIndex,MSTTrainLoop.ran,SoundFile,Type,MSTTestBeginKey.keys,MSTTestBeginKey.rt,MST_resp.keys,MST_resp.corr,MST_resp.rt,MSTPlayLoop.thisRepN,MSTPlayLoop.thisTrialN,MSTPlayLoop.thisN,MSTPlayLoop.thisIndex,MSTPlayLoop.ran,WordCorrect,Correct_type,WordType,MSTLoop.thisRepN,MSTLoop.thisTrialN,MSTLoop.thisN,MSTLoop.thisIndex,MSTLoop.ran,EndAllKey.keys,EndAllKey.rt,FeedbackResp.text
space,8.8051,space,9.3686,space,4.0635,space,14.5534,3,0,8.4731,0,0,0,3,1,Headphone/t2_2.wav,2,607998cbfa1575fa83abab03,2021-10-31_08h22.23.738,Agingstudy,2020.2.10,Win32,60,,,,,,,,,,,,,,,,,,,,,,,,,,,,,,,,,,,,,,,,,,,,,,,,,,
,,,,,,,,2,0,0.9663,0,1,1,5,1,Headphone/t3_2.wav,3,607998cbfa1575fa83abab03,2021-10-31_08h22.23.738,Agingstudy,2020.2.10,Win32,60,,,,,,,,,,,,,,,,,,,,,,,,,,,,,,,,,,,,,,,,,,,,,,,,,,
,,,,,,,,2,0,0.2795,0,2,2,4,1,Headphone/t3_1.wav,3,607998cbfa1575fa83abab03,2021-10-31_08h22.23.738,Agingstudy,2020.2.10,Win32,60,,,,,,,,,,,,,,,,,,,,,,,,,,,,,,,,,,,,,,,,,,,,,,,,,,
,,,,,,,,3,0,0.5747,0,3,3,2,1,Headphone/t2_1.wav,2,607998cbfa1575fa83abab03,2021-10-31_08h22.23.738,Agingstudy,2020.2.10,Win32,60,,,,,,,,,,,,,,,,,,,,,,,,,,,,,,,,,,,,,,,,,,,,,,,,,,
,,,,,,,,1,1,2.2179,0,4,4,0,1,Headphone/t1_1.wav,1,607998cbfa1575fa83abab03,2021-10-31_08h22.23.738,Agingstudy,2020.2.10,Win32,60,,,,,,,,,,,,,,,,,,,,,,,,,,,,,,,,,,,,,,,,,,,,,,,,,,
,,,,,,,,1,1,1.5868,0,5,5,1,1,Headphone/t1_2.wav,1,607998cbfa1575fa83abab03,2021-10-31_08h22.23.738,Agingstudy,2020.2.10,Win32,60,,,,,,,,,,,,,,,,,,,,,,,,,,,,,,,,,,,,,,,,,,,,,,,,,,
,,,,,,,,,,,,,,,,,,607998cbfa1575fa83abab03,2021-10-31_08h22.23.738,Agingstudy,2020.2.10,Win32,60,space,3.9642,0,0,0,0,1,,,,,,,,,,,,,,,,,,,,,,,,,,,,,,,,,,,,,,,,,,,
,,,,,,,,,,,,,,,,,,607998cbfa1575fa83abab03,2021-10-31_08h22.23.738,Agingstudy,2020.2.10,Win32,60,,,,,,,,0,0,0,0,1,,,,,,,,,,,,,,,,,,,,,,,,,,,,,,,,,,,,,,
,,,,,,,,1,1,0.4566,0,0,0,1,1,Headphone/t1_2.wav,1,607998cbfa1575fa83abab03,2021-10-31_08h22.23.738,Agingstudy,2020.2.10,Win32,60,,,,,,,,,,,,,,,,,,,,,,,,,,,,,,,,,,,,,,,,,,,,,,,,,,
,,,,,,,,3,1,0.5683,0,1,1,4,1,Headphone/t3_1.wav,3,607998cbfa1575fa83abab03,2021-10-31_08h22.23.738,Agingstudy,2020.2.10,Win32,60,,,,,,,,,,,,,,,,,,,,,,,,,,,,,,,,,,,,,,,,,,,,,,,,,,
,,,,,,,,3,1,1.5405,0,2,2,5,1,Headphone/t3_2.wav,3,607998cbfa1575fa83abab03,2021-10-31_08h22.23.738,Agingstudy,2020.2.10,Win32,60,,,,,,,,,,,,,,,,,,,,,,,,,,,,,,,,,,,,,,,,,,,,,,,,,,
,,,,,,,,1,1,0.3119,0,3,3,0,1,Headphone/t1_1.wav,1,607998cbfa1575fa83abab03,2021-10-31_08h22.23.738,Agingstudy,2020.2.10,Win32,60,,,,,,,,,,,,,,,,,,,,,,,,,,,,,,,,,,,,,,,,,,,,,,,,,,
,,,,,,,,2,1,1.4721,0,4,4,3,1,Headphone/t2_2.wav,2,607998cbfa1575fa83abab03,2021-10-31_08h22.23.738,Agingstudy,2020.2.10,Win32,60,,,,,,,,,,,,,,,,,,,,,,,,,,,,,,,,,,,,,,,,,,,,,,,,,,
,,,,,,,,2,1,0.2018,0,5,5,2,1,Headphone/t2_1.wav,2,607998cbfa1575fa83abab03,2021-10-31_08h22.23.738,Agingstudy,2020.2.10,Win32,60,,,,,,,,,,,,,,,,,,,,,,,,,,,,,,,,,,,,,,,,,,,,,,,,,,
,,,,,,,,,,,,,,,,,2,607998cbfa1575fa83abab03,2021-10-31_08h22.23.738,Agingstudy,2020.2.10,Win32,60,,,,,,,,,,,,,space,25.6903,space,13.4087,1,space,6.7803,2,1,11.2793,0,0,0,0,1,Training/FO_YI_LAY.wav,NEW,,,,,,,,,,,,,,,,,,,,,
,,,,,,,,,,,,,,,,,1,607998cbfa1575fa83abab03,2021-10-31_08h22.23.738,Agingstudy,2020.2.10,Win32,60,,,,,,,,,,,,,,,,,,,,1,1,3.363,0,1,1,1,1,Training/FO_YI_LAY.wav,OLD,,,,,,,,,,,,,,,,,,,,,
,,,,,,,,,,,,,,,,,2,607998cbfa1575fa83abab03,2021-10-31_08h22.23.738,Agingstudy,2020.2.10,Win32,60,,,,,,,,,,,,,,,,,,,,2,1,1.8653,0,2,2,2,1,Training/YO_BU_JAY.wav,NEW,,,,,,,,,,,,,,,,,,,,,
,,,,,,,,,,,,,,,,,2,607998cbfa1575fa83abab03,2021-10-31_08h22.23.738,Agingstudy,2020.2.10,Win32,60,,,,,,,,,,,,,,,,,,,,2,1,1.5905,0,3,3,3,1,Training/JAY_YO_BU.wav,SIMILAR,,,,,,,,,,,,,,,,,,,,,
,,,,,,,,,,,,,,,,,1,607998cbfa1575fa83abab03,2021-10-31_08h22.23.738,Agingstudy,2020.2.10,Win32,60,,,,,,,,,,,,,,,,,,,,1,1,1.6809,0,4,4,4,1,Training/FO_YI_LAY.wav,OLD,,,,,,,,,,,,,,,,,,,,,
,,,,,,,,,,,,,,,,TestWords/CHU_LA_PAY.wav,,607998cbfa1575fa83abab03,2021-10-31_08h22.23.738,Agingstudy,2020.2.10,Win32,60,,,,,,,,,,,,,,,,,D,,,,,,,,,,,,,space,4.3426,2,1,1.6995,0,0,0,0,1,2,NEW,NEW,,,,,,,,
,,,,,,,,,,,,,,,,TestWords/FI_GU_CHA.wav,,607998cbfa1575fa83abab03,2021-10-31_08h22.23.738,Agingstudy,2020.2.10,Win32,60,,,,,,,,,,,,,,,,,D,,,,,,,,,,,,,,,2,1,1.1836,0,1,1,1,1,2,NEW,NEW,,,,,,,,
,,,,,,,,,,,,,,,,TestWords/RAI_ZO_FU.wav,,607998cbfa1575fa83abab03,2021-10-31_08h22.23.738,Agingstudy,2020.2.10,Win32,60,,,,,,,,,,,,,,,,,D,,,,,,,,,,,,,,,2,1,1.5886,0,2,2,2,1,2,NEW,NEW,,,,,,,,
,,,,,,,,,,,,,,,,TestWords/DAI_RU_CHI.wav,,607998cbfa1575fa83abab03,2021-10-31_08h22.23.738,Agingstudy,2020.2.10,Win32,60,,,,,,,,,,,,,,,,,D,,,,,,,,,,,,,,,2,1,0.6523,0,3,3,3,1,2,NEW,NEW,,,,,,,,
,,,,,,,,,,,,,,,,TestWords/GA_MU_ZI.wav,,607998cbfa1575fa83abab03,2021-10-31_08h22.23.738,Agingstudy,2020.2.10,Win32,60,,,,,,,,,,,,,,,,,D,,,,,,,,,,,,,,,2,1,0.2695,0,4,4,4,1,2,NEW,NEW,,,,,,,,
,,,,,,,,,,,,,,,,TestWords/DA_CHU_VAI.wav,,607998cbfa1575fa83abab03,2021-10-31_08h22.23.738,Agingstudy,2020.2.10,Win32,60,,,,,,,,,,,,,,,,,D,,,,,,,,,,,,,,,2,1,0.7193,0,5,5,5,1,2,NEW,NEW,,,,,,,,
,,,,,,,,,,,,,,,,TestWords/ZO_RAI_FU.wav,,607998cbfa1575fa83abab03,2021-10-31_08h22.23.738,Agingstudy,2020.2.10,Win32,60,,,,,,,,,,,,,,,,,D,,,,,,,,,,,,,,,2,1,1.6364,0,6,6,6,1,2,NEW,SIMILAR,,,,,,,,
,,,,,,,,,,,,,,,,TestWords/BA_KAY_LI.wav,,607998cbfa1575fa83abab03,2021-10-31_08h22.23.738,Agingstudy,2020.2.10,Win32,60,,,,,,,,,,,,,,,,,D,,,,,,,,,,,,,,,2,1,2.1186,0,7,7,7,1,2,NEW,NEW,,,,,,,,
,,,,,,,,,,,,,,,,TestWords/VAI_HO_LA.wav,,607998cbfa1575fa83abab03,2021-10-31_08h22.23.738,Agingstudy,2020.2.10,Win32,60,,,,,,,,,,,,,,,,,D,,,,,,,,,,,,,,,1,0,1.1199,0,8,8,8,1,2,NEW,NEW,,,,,,,,
,,,,,,,,,,,,,,,,TestWords/DAI_RU_CHI.wav,,607998cbfa1575fa83abab03,2021-10-31_08h22.23.738,Agingstudy,2020.2.10,Win32,60,,,,,,,,,,,,,,,,,D,,,,,,,,,,,,,,,1,1,0.5484,0,9,9,9,1,1,OLD,OLD,,,,,,,,
,,,,,,,,,,,,,,,,TestWords/RAY_PA_TI.wav,,607998cbfa1575fa83abab03,2021-10-31_08h22.23.738,Agingstudy,2020.2.10,Win32,60,,,,,,,,,,,,,,,,,D,,,,,,,,,,,,,,,2,1,0.9018,0,10,10,10,1,2,NEW,NEW,,,,,,,,
,,,,,,,,,,,,,,,,TestWords/NO_WA_BAY.wav,,607998cbfa1575fa83abab03,2021-10-31_08h22.23.738,Agingstudy,2020.2.10,Win32,60,,,,,,,,,,,,,,,,,D,,,,,,,,,,,,,,,2,1,0.7023,0,11,11,11,1,2,NEW,NEW,,,,,,,,
,,,,,,,,,,,,,,,,TestWords/GA_MU_ZI.wav,,607998cbfa1575fa83abab03,2021-10-31_08h22.23.738,Agingstudy,2020.2.10,Win32,60,,,,,,,,,,,,,,,,,D,,,,,,,,,,,,,,,2,0,1.6864,0,12,12,12,1,1,OLD,OLD,,,,,,,,
,,,,,,,,,,,,,,,,TestWords/WAI_VU_NA.wav,,607998cbfa1575fa83abab03,2021-10-31_08h22.23.738,Agingstudy,2020.2.10,Win32,60,,,,,,,,,,,,,,,,,D,,,,,,,,,,,,,,,2,1,0.4337,0,13,13,13,1,2,NEW,NEW,,,,,,,,
,,,,,,,,,,,,,,,,TestWords/KAY_LI_BA.wav,,607998cbfa1575fa83abab03,2021-10-31_08h22.23.738,Agingstudy,2020.2.10,Win32,60,,,,,,,,,,,,,,,,,D,,,,,,,,,,,,,,,2,1,1.7798,0,14,14,14,1,2,NEW,SIMILAR,,,,,,,,
,,,,,,,,,,,,,,,,TestWords/FU_RAI_ZO.wav,,607998cbfa1575fa83abab03,2021-10-31_08h22.23.738,Agingstudy,2020.2.10,Win32,60,,,,,,,,,,,,,,,,,D,,,,,,,,,,,,,,,1,0,0.3454,0,15,15,15,1,2,NEW,SIMILAR,,,,,,,,
,,,,,,,,,,,,,,,,TestWords/KAI_LAY_TA.wav,,607998cbfa1575fa83abab03,2021-10-31_08h22.23.738,Agingstudy,2020.2.10,Win32,60,,,,,,,,,,,,,,,,,D,,,,,,,,,,,,,,,2,1,0.6907,0,16,16,16,1,2,NEW,NEW,,,,,,,,
,,,,,,,,,,,,,,,,TestWords/RAY_PA_TI.wav,,607998cbfa1575fa83abab03,2021-10-31_08h22.23.738,Agingstudy,2020.2.10,Win32,60,,,,,,,,,,,,,,,,,D,,,,,,,,,,,,,,,1,1,0.873,0,17,17,17,1,1,OLD,OLD,,,,,,,,
,,,,,,,,,,,,,,,,TestWords/DAI_RU_CHI.wav,,607998cbfa1575fa83abab03,2021-10-31_08h22.23.738,Agingstudy,2020.2.10,Win32,60,,,,,,,,,,,,,,,,,D,,,,,,,,,,,,,,,1,1,0.6865,0,18,18,18,1,1,OLD,OLD,,,,,,,,
,,,,,,,,,,,,,,,,TestWords/WAI_NA_VU.wav,,607998cbfa1575fa83abab03,2021-10-31_08h22.23.738,Agingstudy,2020.2.10,Win32,60,,,,,,,,,,,,,,,,,D,,,,,,,,,,,,,,,2,1,0.2531,0,19,19,19,1,2,NEW,SIMILAR,,,,,,,,
,,,,,,,,,,,,,,,,TestWords/GA_MU_ZI.wav,,607998cbfa1575fa83abab03,2021-10-31_08h22.23.738,Agingstudy,2020.2.10,Win32,60,,,,,,,,,,,,,,,,,D,,,,,,,,,,,,,,,1,1,0.6353,0,20,20,20,1,1,OLD,OLD,,,,,,,,
,,,,,,,,,,,,,,,,TestWords/KAY_BA_LI.wav,,607998cbfa1575fa83abab03,2021-10-31_08h22.23.738,Agingstudy,2020.2.10,Win32,60,,,,,,,,,,,,,,,,,D,,,,,,,,,,,,,,,1,0,0.2809,0,21,21,21,1,2,NEW,SIMILAR,,,,,,,,
,,,,,,,,,,,,,,,,TestWords/KAI_LAY_TA.wav,,607998cbfa1575fa83abab03,2021-10-31_08h22.23.738,Agingstudy,2020.2.10,Win32,60,,,,,,,,,,,,,,,,,D,,,,,,,,,,,,,,,1,1,0.4662,0,22,22,22,1,1,OLD,OLD,,,,,,,,
,,,,,,,,,,,,,,,,TestWords/FU_ZO_RAI.wav,,607998cbfa1575fa83abab03,2021-10-31_08h22.23.738,Agingstudy,2020.2.10,Win32,60,,,,,,,,,,,,,,,,,D,,,,,,,,,,,,,,,2,1,1.4563,0,23,23,23,1,2,NEW,SIMILAR,,,,,,,,
,,,,,,,,,,,,,,,,TestWords/RAY_PA_TI.wav,,607998cbfa1575fa83abab03,2021-10-31_08h22.23.738,Agingstudy,2020.2.10,Win32,60,,,,,,,,,,,,,,,,,D,,,,,,,,,,,,,,,1,1,0.6508,0,24,24,24,1,1,OLD,OLD,,,,,,,,
,,,,,,,,,,,,,,,,TestWords/DAI_RU_CHI.wav,,607998cbfa1575fa83abab03,2021-10-31_08h22.23.738,Agingstudy,2020.2.10,Win32,60,,,,,,,,,,,,,,,,,D,,,,,,,,,,,,,,,1,1,0.7675,0,25,25,25,1,1,OLD,OLD,,,,,,,,
,,,,,,,,,,,,,,,,TestWords/VU_NA_WAI.wav,,607998cbfa1575fa83abab03,2021-10-31_08h22.23.738,Agingstudy,2020.2.10,Win32,60,,,,,,,,,,,,,,,,,D,,,,,,,,,,,,,,,1,0,0.7859,0,26,26,26,1,2,NEW,SIMILAR,,,,,,,,
,,,,,,,,,,,,,,,,TestWords/RAI_FU_ZO.wav,,607998cbfa1575fa83abab03,2021-10-31_08h22.23.738,Agingstudy,2020.2.10,Win32,60,,,,,,,,,,,,,,,,,D,,,,,,,,,,,,,,,2,1,0.8686,0,27,27,27,1,2,NEW,SIMILAR,,,,,,,,
,,,,,,,,,,,,,,,,TestWords/GA_MU_ZI.wav,,607998cbfa1575fa83abab03,2021-10-31_08h22.23.738,Agingstudy,2020.2.10,Win32,60,,,,,,,,,,,,,,,,,D,,,,,,,,,,,,,,,1,1,1.5532,0,28,28,28,1,1,OLD,OLD,,,,,,,,
,,,,,,,,,,,,,,,,TestWords/LI_BA_KAY.wav,,607998cbfa1575fa83abab03,2021-10-31_08h22.23.738,Agingstudy,2020.2.10,Win32,60,,,,,,,,,,,,,,,,,D,,,,,,,,,,,,,,,1,0,1.5022,0,29,29,29,1,2,NEW,SIMILAR,,,,,,,,
,,,,,,,,,,,,,,,,TestWords/KAI_LAY_TA.wav,,607998cbfa1575fa83abab03,2021-10-31_08h22.23.738,Agingstudy,2020.2.10,Win32,60,,,,,,,,,,,,,,,,,D,,,,,,,,,,,,,,,1,1,1.8295,0,30,30,30,1,1,OLD,OLD,,,,,,,,
,,,,,,,,,,,,,,,,TestWords/RAY_PA_TI.wav,,607998cbfa1575fa83abab03,2021-10-31_08h22.23.738,Agingstudy,2020.2.10,Win32,60,,,,,,,,,,,,,,,,,D,,,,,,,,,,,,,,,1,1,0.7512,0,31,31,31,1,1,OLD,OLD,,,,,,,,
,,,,,,,,,,,,,,,,TestWords/VU_WAI_NA.wav,,607998cbfa1575fa83abab03,2021-10-31_08h22.23.738,Agingstudy,2020.2.10,Win32,60,,,,,,,,,,,,,,,,,D,,,,,,,,,,,,,,,2,1,1.0014,0,32,32,32,1,2,NEW,SIMILAR,,,,,,,,
,,,,,,,,,,,,,,,,TestWords/DAI_RU_CHI.wav,,607998cbfa1575fa83abab03,2021-10-31_08h22.23.738,Agingstudy,2020.2.10,Win32,60,,,,,,,,,,,,,,,,,D,,,,,,,,,,,,,,,1,1,0.5682,0,33,33,33,1,1,OLD,OLD,,,,,,,,
,,,,,,,,,,,,,,,,TestWords/ZO_FU_RAI.wav,,607998cbfa1575fa83abab03,2021-10-31_08h22.23.738,Agingstudy,2020.2.10,Win32,60,,,,,,,,,,,,,,,,,D,,,,,,,,,,,,,,,1,0,1.1281,0,34,34,34,1,2,NEW,SIMILAR,,,,,,,,
,,,,,,,,,,,,,,,,TestWords/BA_LI_KAY.wav,,607998cbfa1575fa83abab03,2021-10-31_08h22.23.738,Agingstudy,2020.2.10,Win32,60,,,,,,,,,,,,,,,,,D,,,,,,,,,,,,,,,1,0,0.6525,0,35,35,35,1,2,NEW,SIMILAR,,,,,,,,
,,,,,,,,,,,,,,,,TestWords/KO_SU_FAI.wav,,607998cbfa1575fa83abab03,2021-10-31_08h22.23.738,Agingstudy,2020.2.10,Win32,60,,,,,,,,,,,,,,,,,D,,,,,,,,,,,,,,,2,1,0.2717,0,36,36,36,1,2,NEW,NEW,,,,,,,,
,,,,,,,,,,,,,,,,TestWords/KAI_LAY_TA.wav,,607998cbfa1575fa83abab03,2021-10-31_08h22.23.738,Agingstudy,2020.2.10,Win32,60,,,,,,,,,,,,,,,,,D,,,,,,,,,,,,,,,1,1,1.9532,0,37,37,37,1,1,OLD,OLD,,,,,,,,
,,,,,,,,,,,,,,,,TestWords/RAY_PA_TI.wav,,607998cbfa1575fa83abab03,2021-10-31_08h22.23.738,Agingstudy,2020.2.10,Win32,60,,,,,,,,,,,,,,,,,D,,,,,,,,,,,,,,,1,1,1.1974,0,38,38,38,1,1,OLD,OLD,,,,,,,,
,,,,,,,,,,,,,,,,TestWords/GA_MU_ZI.wav,,607998cbfa1575fa83abab03,2021-10-31_08h22.23.738,Agingstudy,2020.2.10,Win32,60,,,,,,,,,,,,,,,,,D,,,,,,,,,,,,,,,1,1,0.8634,0,39,39,39,1,1,OLD,OLD,,,,,,,,
,,,,,,,,,,,,,,,,TestWords/NA_VU_WAI.wav,,607998cbfa1575fa83abab03,2021-10-31_08h22.23.738,Agingstudy,2020.2.10,Win32,60,,,,,,,,,,,,,,,,,D,,,,,,,,,,,,,,,2,1,2.4696,0,40,40,40,1,2,NEW,SIMILAR,,,,,,,,
,,,,,,,,,,,,,,,,TestWords/DAI_RU_CHI.wav,,607998cbfa1575fa83abab03,2021-10-31_08h22.23.738,Agingstudy,2020.2.10,Win32,60,,,,,,,,,,,,,,,,,D,,,,,,,,,,,,,,,1,1,0.5677,0,41,41,41,1,1,OLD,OLD,,,,,,,,
,,,,,,,,,,,,,,,,TestWords/KO_SU_FAI.wav,,607998cbfa1575fa83abab03,2021-10-31_08h22.23.738,Agingstudy,2020.2.10,Win32,60,,,,,,,,,,,,,,,,,D,,,,,,,,,,,,,,,2,0,0.4615,0,42,42,42,1,1,OLD,OLD,,,,,,,,
,,,,,,,,,,,,,,,,TestWords/NA_WAI_VU.wav,,607998cbfa1575fa83abab03,2021-10-31_08h22.23.738,Agingstudy,2020.2.10,Win32,60,,,,,,,,,,,,,,,,,D,,,,,,,,,,,,,,,2,1,0.9168,0,43,43,43,1,2,NEW,SIMILAR,,,,,,,,
,,,,,,,,,,,,,,,,TestWords/KAI_LAY_TA.wav,,607998cbfa1575fa83abab03,2021-10-31_08h22.23.738,Agingstudy,2020.2.10,Win32,60,,,,,,,,,,,,,,,,,D,,,,,,,,,,,,,,,1,1,0.8303,0,44,44,44,1,1,OLD,OLD,,,,,,,,
,,,,,,,,,,,,,,,,TestWords/SI_VAI_CHU.wav,,607998cbfa1575fa83abab03,2021-10-31_08h22.23.738,Agingstudy,2020.2.10,Win32,60,,,,,,,,,,,,,,,,,D,,,,,,,,,,,,,,,1,0,0.9242,0,45,45,45,1,2,NEW,NEW,,,,,,,,
,,,,,,,,,,,,,,,,TestWords/RAY_PA_TI.wav,,607998cbfa1575fa83abab03,2021-10-31_08h22.23.738,Agingstudy,2020.2.10,Win32,60,,,,,,,,,,,,,,,,,D,,,,,,,,,,,,,,,1,1,0.5177,0,46,46,46,1,1,OLD,OLD,,,,,,,,
,,,,,,,,,,,,,,,,TestWords/GA_MU_ZI.wav,,607998cbfa1575fa83abab03,2021-10-31_08h22.23.738,Agingstudy,2020.2.10,Win32,60,,,,,,,,,,,,,,,,,D,,,,,,,,,,,,,,,1,1,1.7106,0,47,47,47,1,1,OLD,OLD,,,,,,,,
,,,,,,,,,,,,,,,,TestWords/LI_KAY_BA.wav,,607998cbfa1575fa83abab03,2021-10-31_08h22.23.738,Agingstudy,2020.2.10,Win32,60,,,,,,,,,,,,,,,,,D,,,,,,,,,,,,,,,1,0,0.3064,0,48,48,48,1,2,NEW,SIMILAR,,,,,,,,
,,,,,,,,,,,,,,,,TestWords/KO_SU_FAI.wav,,607998cbfa1575fa83abab03,2021-10-31_08h22.23.738,Agingstudy,2020.2.10,Win32,60,,,,,,,,,,,,,,,,,D,,,,,,,,,,,,,,,2,0,0.7295,0,49,49,49,1,1,OLD,OLD,,,,,,,,
,,,,,,,,,,,,,,,,TestWords/DAI_RU_CHI.wav,,607998cbfa1575fa83abab03,2021-10-31_08h22.23.738,Agingstudy,2020.2.10,Win32,60,,,,,,,,,,,,,,,,,D,,,,,,,,,,,,,,,1,1,1.6177,0,50,50,50,1,1,OLD,OLD,,,,,,,,
,,,,,,,,,,,,,,,,TestWords/DAY_PU_MO.wav,,607998cbfa1575fa83abab03,2021-10-31_08h22.23.738,Agingstudy,2020.2.10,Win32,60,,,,,,,,,,,,,,,,,D,,,,,,,,,,,,,,,2,1,0.3951,0,51,51,51,1,2,NEW,NEW,,,,,,,,
,,,,,,,,,,,,,,,,TestWords/KAI_LAY_TA.wav,,607998cbfa1575fa83abab03,2021-10-31_08h22.23.738,Agingstudy,2020.2.10,Win32,60,,,,,,,,,,,,,,,,,D,,,,,,,,,,,,,,,1,1,1.1948,0,52,52,52,1,1,OLD,OLD,,,,,,,,
,,,,,,,,,,,,,,,,TestWords/LU_HAI_BO.wav,,607998cbfa1575fa83abab03,2021-10-31_08h22.23.738,Agingstudy,2020.2.10,Win32,60,,,,,,,,,,,,,,,,,D,,,,,,,,,,,,,,,2,1,1.8372,0,53,53,53,1,2,NEW,NEW,,,,,,,,
,,,,,,,,,,,,,,,,TestWords/RAY_PA_TI.wav,,607998cbfa1575fa83abab03,2021-10-31_08h22.23.738,Agingstudy,2020.2.10,Win32,60,,,,,,,,,,,,,,,,,D,,,,,,,,,,,,,,,1,1,1.8337,0,54,54,54,1,1,OLD,OLD,,,,,,,,
,,,,,,,,,,,,,,,,TestWords/GA_MU_ZI.wav,,607998cbfa1575fa83abab03,2021-10-31_08h22.23.738,Agingstudy,2020.2.10,Win32,60,,,,,,,,,,,,,,,,,D,,,,,,,,,,,,,,,1,1,0.6026,0,55,55,55,1,1,OLD,OLD,,,,,,,,
,,,,,,,,,,,,,,,,TestWords/KO_SU_FAI.wav,,607998cbfa1575fa83abab03,2021-10-31_08h22.23.738,Agingstudy,2020.2.10,Win32,60,,,,,,,,,,,,,,,,,D,,,,,,,,,,,,,,,2,0,1.819,0,56,56,56,1,1,OLD,OLD,,,,,,,,
,,,,,,,,,,,,,,,,TestWords/TAI_SA_GI.wav,,607998cbfa1575fa83abab03,2021-10-31_08h22.23.738,Agingstudy,2020.2.10,Win32,60,,,,,,,,,,,,,,,,,D,,,,,,,,,,,,,,,2,1,0.6892,0,57,57,57,1,2,NEW,NEW,,,,,,,,
,,,,,,,,,,,,,,,,TestWords/DAY_MO_PU.wav,,607998cbfa1575fa83abab03,2021-10-31_08h22.23.738,Agingstudy,2020.2.10,Win32,60,,,,,,,,,,,,,,,,,D,,,,,,,,,,,,,,,1,0,0.7551,0,58,58,58,1,2,NEW,SIMILAR,,,,,,,,
,,,,,,,,,,,,,,,,TestWords/DAI_RU_CHI.wav,,607998cbfa1575fa83abab03,2021-10-31_08h22.23.738,Agingstudy,2020.2.10,Win32,60,,,,,,,,,,,,,,,,,D,,,,,,,,,,,,,,,1,1,0.504,0,59,59,59,1,1,OLD,OLD,,,,,,,,
,,,,,,,,,,,,,,,,TestWords/KAI_LAY_TA.wav,,607998cbfa1575fa83abab03,2021-10-31_08h22.23.738,Agingstudy,2020.2.10,Win32,60,,,,,,,,,,,,,,,,,D,,,,,,,,,,,,,,,1,1,0.2433,0,60,60,60,1,1,OLD,OLD,,,,,,,,
,,,,,,,,,,,,,,,,TestWords/LA_ZAY_CHAI.wav,,607998cbfa1575fa83abab03,2021-10-31_08h22.23.738,Agingstudy,2020.2.10,Win32,60,,,,,,,,,,,,,,,,,D,,,,,,,,,,,,,,,2,1,0.2185,0,61,61,61,1,2,NEW,NEW,,,,,,,,
,,,,,,,,,,,,,,,,TestWords/RAY_PA_TI.wav,,607998cbfa1575fa83abab03,2021-10-31_08h22.23.738,Agingstudy,2020.2.10,Win32,60,,,,,,,,,,,,,,,,,D,,,,,,,,,,,,,,,1,1,0.1507,0,62,62,62,1,1,OLD,OLD,,,,,,,,
,,,,,,,,,,,,,,,,TestWords/KO_SU_FAI.wav,,607998cbfa1575fa83abab03,2021-10-31_08h22.23.738,Agingstudy,2020.2.10,Win32,60,,,,,,,,,,,,,,,,,D,,,,,,,,,,,,,,,1,1,1.0843,0,63,63,63,1,1,OLD,OLD,,,,,,,,
,,,,,,,,,,,,,,,,TestWords/GA_MU_ZI.wav,,607998cbfa1575fa83abab03,2021-10-31_08h22.23.738,Agingstudy,2020.2.10,Win32,60,,,,,,,,,,,,,,,,,D,,,,,,,,,,,,,,,1,1,1.0955,0,64,64,64,1,1,OLD,OLD,,,,,,,,
,,,,,,,,,,,,,,,,TestWords/GI_TAI_SA.wav,,607998cbfa1575fa83abab03,2021-10-31_08h22.23.738,Agingstudy,2020.2.10,Win32,60,,,,,,,,,,,,,,,,,D,,,,,,,,,,,,,,,1,0,0.7926,0,65,65,65,1,2,NEW,SIMILAR,,,,,,,,
,,,,,,,,,,,,,,,,TestWords/MO_DAY_PU.wav,,607998cbfa1575fa83abab03,2021-10-31_08h22.23.738,Agingstudy,2020.2.10,Win32,60,,,,,,,,,,,,,,,,,D,,,,,,,,,,,,,,,2,1,1.82,0,66,66,66,1,2,NEW,SIMILAR,,,,,,,,
,,,,,,,,,,,,,,,,TestWords/KAI_LAY_TA.wav,,607998cbfa1575fa83abab03,2021-10-31_08h22.23.738,Agingstudy,2020.2.10,Win32,60,,,,,,,,,,,,,,,,,D,,,,,,,,,,,,,,,2,0,1.8187,0,67,67,67,1,1,OLD,OLD,,,,,,,,
,,,,,,,,,,,,,,,,TestWords/KO_SU_FAI.wav,,607998cbfa1575fa83abab03,2021-10-31_08h22.23.738,Agingstudy,2020.2.10,Win32,60,,,,,,,,,,,,,,,,,D,,,,,,,,,,,,,,,1,1,0.6145,0,68,68,68,1,1,OLD,OLD,,,,,,,,
,,,,,,,,,,,,,,,,TestWords/RAY_PA_TI.wav,,607998cbfa1575fa83abab03,2021-10-31_08h22.23.738,Agingstudy,2020.2.10,Win32,60,,,,,,,,,,,,,,,,,D,,,,,,,,,,,,,,,1,1,0.4212,0,69,69,69,1,1,OLD,OLD,,,,,,,,
,,,,,,,,,,,,,,,,TestWords/NU_CHAY_SO.wav,,607998cbfa1575fa83abab03,2021-10-31_08h22.23.738,Agingstudy,2020.2.10,Win32,60,,,,,,,,,,,,,,,,,D,,,,,,,,,,,,,,,2,1,0.88,0,70,70,70,1,2,NEW,NEW,,,,,,,,
,,,,,,,,,,,,,,,,TestWords/GA_MU_ZI.wav,,607998cbfa1575fa83abab03,2021-10-31_08h22.23.738,Agingstudy,2020.2.10,Win32,60,,,,,,,,,,,,,,,,,D,,,,,,,,,,,,,,,1,1,0.6552,0,71,71,71,1,1,OLD,OLD,,,,,,,,
,,,,,,,,,,,,,,,,TestWords/DAI_RU_CHI.wav,,607998cbfa1575fa83abab03,2021-10-31_08h22.23.738,Agingstudy,2020.2.10,Win32,60,,,,,,,,,,,,,,,,,D,,,,,,,,,,,,,,,1,1,1.1694,0,72,72,72,1,1,OLD,OLD,,,,,,,,
,,,,,,,,,,,,,,,,TestWords/SA_TAI_GI.wav,,607998cbfa1575fa83abab03,2021-10-31_08h22.23.738,Agingstudy,2020.2.10,Win32,60,,,,,,,,,,,,,,,,,D,,,,,,,,,,,,,,,2,1,0.6716,0,73,73,73,1,2,NEW,SIMILAR,,,,,,,,
,,,,,,,,,,,,,,,,TestWords/PU_DAY_MO.wav,,607998cbfa1575fa83abab03,2021-10-31_08h22.23.738,Agingstudy,2020.2.10,Win32,60,,,,,,,,,,,,,,,,,D,,,,,,,,,,,,,,,2,1,1.2524,0,74,74,74,1,2,NEW,SIMILAR,,,,,,,,
,,,,,,,,,,,,,,,,TestWords/KO_SU_FAI.wav,,607998cbfa1575fa83abab03,2021-10-31_08h22.23.738,Agingstudy,2020.2.10,Win32,60,,,,,,,,,,,,,,,,,D,,,,,,,,,,,,,,,1,1,0.1812,0,75,75,75,1,1,OLD,OLD,,,,,,,,
,,,,,,,,,,,,,,,,TestWords/KAI_LAY_TA.wav,,607998cbfa1575fa83abab03,2021-10-31_08h22.23.738,Agingstudy,2020.2.10,Win32,60,,,,,,,,,,,,,,,,,D,,,,,,,,,,,,,,,1,1,0.5321,0,76,76,76,1,1,OLD,OLD,,,,,,,,
,,,,,,,,,,,,,,,,TestWords/HA_SI_JAI.wav,,607998cbfa1575fa83abab03,2021-10-31_08h22.23.738,Agingstudy,2020.2.10,Win32,60,,,,,,,,,,,,,,,,,D,,,,,,,,,,,,,,,2,1,0.8718,0,77,77,77,1,2,NEW,NEW,,,,,,,,
,,,,,,,,,,,,,,,,TestWords/RAY_PA_TI.wav,,607998cbfa1575fa83abab03,2021-10-31_08h22.23.738,Agingstudy,2020.2.10,Win32,60,,,,,,,,,,,,,,,,,D,,,,,,,,,,,,,,,1,1,0.667,0,78,78,78,1,1,OLD,OLD,,,,,,,,
,,,,,,,,,,,,,,,,TestWords/DAI_RU_CHI.wav,,607998cbfa1575fa83abab03,2021-10-31_08h22.23.738,Agingstudy,2020.2.10,Win32,60,,,,,,,,,,,,,,,,,D,,,,,,,,,,,,,,,1,1,2.3292,0,79,79,79,1,1,OLD,OLD,,,,,,,,
,,,,,,,,,,,,,,,,TestWords/GA_MU_ZI.wav,,607998cbfa1575fa83abab03,2021-10-31_08h22.23.738,Agingstudy,2020.2.10,Win32,60,,,,,,,,,,,,,,,,,D,,,,,,,,,,,,,,,1,1,0.6675,0,80,80,80,1,1,OLD,OLD,,,,,,,,
,,,,,,,,,,,,,,,,TestWords/SA_GI_TAI.wav,,607998cbfa1575fa83abab03,2021-10-31_08h22.23.738,Agingstudy,2020.2.10,Win32,60,,,,,,,,,,,,,,,,,D,,,,,,,,,,,,,,,2,1,0.4864,0,81,81,81,1,2,NEW,SIMILAR,,,,,,,,
,,,,,,,,,,,,,,,,TestWords/KO_SU_FAI.wav,,607998cbfa1575fa83abab03,2021-10-31_08h22.23.738,Agingstudy,2020.2.10,Win32,60,,,,,,,,,,,,,,,,,D,,,,,,,,,,,,,,,1,1,0.4564,0,82,82,82,1,1,OLD,OLD,,,,,,,,
,,,,,,,,,,,,,,,,TestWords/KAI_LAY_TA.wav,,607998cbfa1575fa83abab03,2021-10-31_08h22.23.738,Agingstudy,2020.2.10,Win32,60,,,,,,,,,,,,,,,,,D,,,,,,,,,,,,,,,1,1,0.317,0,83,83,83,1,1,OLD,OLD,,,,,,,,
,,,,,,,,,,,,,,,,TestWords/PU_MO_DAY.wav,,607998cbfa1575fa83abab03,2021-10-31_08h22.23.738,Agingstudy,2020.2.10,Win32,60,,,,,,,,,,,,,,,,,D,,,,,,,,,,,,,,,2,1,1.1997,0,84,84,84,1,2,NEW,SIMILAR,,,,,,,,
,,,,,,,,,,,,,,,,TestWords/RAY_PA_TI.wav,,607998cbfa1575fa83abab03,2021-10-31_08h22.23.738,Agingstudy,2020.2.10,Win32,60,,,,,,,,,,,,,,,,,D,,,,,,,,,,,,,,,1,1,0.328,0,85,85,85,1,1,OLD,OLD,,,,,,,,
,,,,,,,,,,,,,,,,TestWords/HI_NAY_VA.wav,,607998cbfa1575fa83abab03,2021-10-31_08h22.23.738,Agingstudy,2020.2.10,Win32,60,,,,,,,,,,,,,,,,,D,,,,,,,,,,,,,,,2,1,0.3524,0,86,86,86,1,2,NEW,NEW,,,,,,,,
,,,,,,,,,,,,,,,,TestWords/DAI_RU_CHI.wav,,607998cbfa1575fa83abab03,2021-10-31_08h22.23.738,Agingstudy,2020.2.10,Win32,60,,,,,,,,,,,,,,,,,D,,,,,,,,,,,,,,,1,1,1.3465,0,87,87,87,1,1,OLD,OLD,,,,,,,,
,,,,,,,,,,,,,,,,TestWords/TAI_GI_SA.wav,,607998cbfa1575fa83abab03,2021-10-31_08h22.23.738,Agingstudy,2020.2.10,Win32,60,,,,,,,,,,,,,,,,,D,,,,,,,,,,,,,,,1,0,0.6803,0,88,88,88,1,2,NEW,SIMILAR,,,,,,,,
,,,,,,,,,,,,,,,,TestWords/KO_SU_FAI.wav,,607998cbfa1575fa83abab03,2021-10-31_08h22.23.738,Agingstudy,2020.2.10,Win32,60,,,,,,,,,,,,,,,,,D,,,,,,,,,,,,,,,1,1,0.1273,0,89,89,89,1,1,OLD,OLD,,,,,,,,
,,,,,,,,,,,,,,,,TestWords/GA_MU_ZI.wav,,607998cbfa1575fa83abab03,2021-10-31_08h22.23.738,Agingstudy,2020.2.10,Win32,60,,,,,,,,,,,,,,,,,D,,,,,,,,,,,,,,,1,1,2.8509,0,90,90,90,1,1,OLD,OLD,,,,,,,,
,,,,,,,,,,,,,,,,TestWords/PAI_LU_WA.wav,,607998cbfa1575fa83abab03,2021-10-31_08h22.23.738,Agingstudy,2020.2.10,Win32,60,,,,,,,,,,,,,,,,,D,,,,,,,,,,,,,,,2,1,1.0684,0,91,91,91,1,2,NEW,NEW,,,,,,,,
,,,,,,,,,,,,,,,,TestWords/KAI_LAY_TA.wav,,607998cbfa1575fa83abab03,2021-10-31_08h22.23.738,Agingstudy,2020.2.10,Win32,60,,,,,,,,,,,,,,,,,D,,,,,,,,,,,,,,,2,0,3.3838,0,92,92,92,1,1,OLD,OLD,,,,,,,,
,,,,,,,,,,,,,,,,TestWords/MO_PU_DAY.wav,,607998cbfa1575fa83abab03,2021-10-31_08h22.23.738,Agingstudy,2020.2.10,Win32,60,,,,,,,,,,,,,,,,,D,,,,,,,,,,,,,,,1,0,0.9389,0,93,93,93,1,2,NEW,SIMILAR,,,,,,,,
,,,,,,,,,,,,,,,,TestWords/KO_SU_FAI.wav,,607998cbfa1575fa83abab03,2021-10-31_08h22.23.738,Agingstudy,2020.2.10,Win32,60,,,,,,,,,,,,,,,,,D,,,,,,,,,,,,,,,1,1,0.3133,0,94,94,94,1,1,OLD,OLD,,,,,,,,
,,,,,,,,,,,,,,,,TestWords/GI_SA_TAI.wav,,607998cbfa1575fa83abab03,2021-10-31_08h22.23.738,Agingstudy,2020.2.10,Win32,60,,,,,,,,,,,,,,,,,D,,,,,,,,,,,,,,,2,1,1.2872,0,95,95,95,1,2,NEW,SIMILAR,,,,,,,,
,,,,,,,,,,,,,,,,TestWords/HO_NAY_VA.wav,,607998cbfa1575fa83abab03,2021-10-31_08h22.23.738,Agingstudy,2020.2.10,Win32,60,,,,,,,,,,,,,,,,,D,,,,,,,,,,,,,,,1,0,0.5706,0,96,96,96,1,2,NEW,NEW,,,,,,,,
,,,,,,,,,,,,,,,,TestWords/GU_CHAI_PI.wav,,607998cbfa1575fa83abab03,2021-10-31_08h22.23.738,Agingstudy,2020.2.10,Win32,60,,,,,,,,,,,,,,,,,D,,,,,,,,,,,,,,,2,1,0.8851,0,97,97,97,1,2,NEW,NEW,,,,,,,,
,,,,,,,,,,,,,,,,TestWords/KO_SU_FAI.wav,,607998cbfa1575fa83abab03,2021-10-31_08h22.23.738,Agingstudy,2020.2.10,Win32,60,,,,,,,,,,,,,,,,,D,,,,,,,,,,,,,,,1,1,0.1016,0,98,98,98,1,1,OLD,OLD,,,,,,,,
,,,,,,,,,,,,,,,,TestWords/WAI_RO_JU.wav,,607998cbfa1575fa83abab03,2021-10-31_08h22.23.738,Agingstudy,2020.2.10,Win32,60,,,,,,,,,,,,,,,,,D,,,,,,,,,,,,,,,2,1,1.2258,0,99,99,99,1,2,NEW,NEW,,,,,,,,
,,,,,,,,,,,,,,,,,,607998cbfa1575fa83abab03,2021-10-31_08h22.23.738,Agingstudy,2020.2.10,Win32,60,,,,,,,,,,,,,,,,,,,,,,,,,,,,,,,,,,,,,,,,,,,0,0,0,0,1,,,
,,,,,,,,,,,,,,,,,,607998cbfa1575fa83abab03,2021-10-31_08h22.23.738,Agingstudy,2020.2.10,Win32,60,,,,,,,,,,,,,,,,,,,,,,,,,,,,,,,,,,,,,,,,,,,,,,,,return,11.9959,
