Welcome0Continue.keys,Welcome0Continue.rt,SoundCheckBegin.keys,SoundCheckBegin.rt,SoundCheckEndKey.keys,SoundCheckEndKey.rt,HeadphoneContinueKey.keys,HeadphoneContinueKey.rt,CheckResp.keys,CheckResp.corr,CheckResp.rt,HeadphoneLoop.thisRepN,HeadphoneLoop.thisTrialN,HeadphoneLoop.thisN,HeadphoneLoop.thisIndex,HeadphoneLoop.ran,File,Correct,participant,date,expName,psychopyVersion,OS,frameRate,ContinueKey8.keys,ContinueKey8.rt,MSTWelcomeContKey.keys,MSTWelcomeContKey.rt,Condition,MSTTrainIntroKey.keys,MSTTrainIntroKey.rt,MSTTrainKeys.keys,MSTTrainKeys.corr,MSTTrainKeys.rt,MSTTrainLoop.thisRepN,MSTTrainLoop.thisTrialN,MSTTrainLoop.thisN,MSTTrainLoop.thisIndex,MSTTrainLoop.ran,SoundFile,Type,MSTTestBeginKey.keys,MSTTestBeginKey.rt,MST_resp.keys,MST_resp.corr,MST_resp.rt,MSTPlayLoop.thisRepN,MSTPlayLoop.thisTrialN,MSTPlayLoop.thisN,MSTPlayLoop.thisIndex,MSTPlayLoop.ran,WordCorrect,Correct_type,WordType,MSTLoop.thisRepN,MSTLoop.thisTrialN,MSTLoop.thisN,MSTLoop.thisIndex,MSTLoop.ran,EndAllKey.keys,EndAllKey.rt,FeedbackResp.text
space,9.9249,space,6.2425,space,2.6587,space,10.695,2,1,4.0073,0,0,0,3,1,Headphone/t2_2.wav,2,6086c333d6eb73cfdd564e90,2021-07-14_06h47.35.991,Agingstudy,2020.2.10,Win32,60,,,,,,,,,,,,,,,,,,,,,,,,,,,,,,,,,,,,,,
,,,,,,,,2,1,1.4015,0,1,1,2,1,Headphone/t2_1.wav,2,6086c333d6eb73cfdd564e90,2021-07-14_06h47.35.991,Agingstudy,2020.2.10,Win32,60,,,,,,,,,,,,,,,,,,,,,,,,,,,,,,,,,,,,,,
,,,,,,,,3,1,0.6175,0,2,2,4,1,Headphone/t3_1.wav,3,6086c333d6eb73cfdd564e90,2021-07-14_06h47.35.991,Agingstudy,2020.2.10,Win32,60,,,,,,,,,,,,,,,,,,,,,,,,,,,,,,,,,,,,,,
,,,,,,,,1,1,1.0346,0,3,3,1,1,Headphone/t1_2.wav,1,6086c333d6eb73cfdd564e90,2021-07-14_06h47.35.991,Agingstudy,2020.2.10,Win32,60,,,,,,,,,,,,,,,,,,,,,,,,,,,,,,,,,,,,,,
,,,,,,,,1,1,1.1066,0,4,4,0,1,Headphone/t1_1.wav,1,6086c333d6eb73cfdd564e90,2021-07-14_06h47.35.991,Agingstudy,2020.2.10,Win32,60,,,,,,,,,,,,,,,,,,,,,,,,,,,,,,,,,,,,,,
,,,,,,,,3,1,0.5241,0,5,5,5,1,Headphone/t3_2.wav,3,6086c333d6eb73cfdd564e90,2021-07-14_06h47.35.991,Agingstudy,2020.2.10,Win32,60,,,,,,,,,,,,,,,,,,,,,,,,,,,,,,,,,,,,,,
,,,,,,,,,,,,,,,,,2,6086c333d6eb73cfdd564e90,2021-07-14_06h47.35.991,Agingstudy,2020.2.10,Win32,60,space,17.9432,space,7.7139,1,space,3.3193,2,1,5.1206,0,0,0,0,1,Training/FO_YI_LAY.wav,NEW,,,,,,,,,,,,,,,,,,,,,
,,,,,,,,,,,,,,,,,1,6086c333d6eb73cfdd564e90,2021-07-14_06h47.35.991,Agingstudy,2020.2.10,Win32,60,,,,,,,,1,1,1.5238,0,1,1,1,1,Training/FO_YI_LAY.wav,OLD,,,,,,,,,,,,,,,,,,,,,
,,,,,,,,,,,,,,,,,2,6086c333d6eb73cfdd564e90,2021-07-14_06h47.35.991,Agingstudy,2020.2.10,Win32,60,,,,,,,,2,1,1.9702,0,2,2,2,1,Training/YO_BU_JAY.wav,NEW,,,,,,,,,,,,,,,,,,,,,
,,,,,,,,,,,,,,,,,2,6086c333d6eb73cfdd564e90,2021-07-14_06h47.35.991,Agingstudy,2020.2.10,Win32,60,,,,,,,,2,1,0.9507,0,3,3,3,1,Training/JAY_YO_BU.wav,SIMILAR,,,,,,,,,,,,,,,,,,,,,
,,,,,,,,,,,,,,,,,1,6086c333d6eb73cfdd564e90,2021-07-14_06h47.35.991,Agingstudy,2020.2.10,Win32,60,,,,,,,,1,1,1.1677,0,4,4,4,1,Training/FO_YI_LAY.wav,OLD,,,,,,,,,,,,,,,,,,,,,
,,,,,,,,,,,,,,,,TestWords/CHU_LA_PAY.wav,,6086c333d6eb73cfdd564e90,2021-07-14_06h47.35.991,Agingstudy,2020.2.10,Win32,60,,,,,D,,,,,,,,,,,,,space,12.9934,2,1,1.7046,0,0,0,0,1,2,NEW,NEW,,,,,,,,
,,,,,,,,,,,,,,,,TestWords/FI_GU_CHA.wav,,6086c333d6eb73cfdd564e90,2021-07-14_06h47.35.991,Agingstudy,2020.2.10,Win32,60,,,,,D,,,,,,,,,,,,,,,2,1,0.6289,0,1,1,1,1,2,NEW,NEW,,,,,,,,
,,,,,,,,,,,,,,,,TestWords/RAI_ZO_FU.wav,,6086c333d6eb73cfdd564e90,2021-07-14_06h47.35.991,Agingstudy,2020.2.10,Win32,60,,,,,D,,,,,,,,,,,,,,,2,1,0.8457,0,2,2,2,1,2,NEW,NEW,,,,,,,,
,,,,,,,,,,,,,,,,TestWords/DAI_RU_CHI.wav,,6086c333d6eb73cfdd564e90,2021-07-14_06h47.35.991,Agingstudy,2020.2.10,Win32,60,,,,,D,,,,,,,,,,,,,,,2,1,0.9512,0,3,3,3,1,2,NEW,NEW,,,,,,,,
,,,,,,,,,,,,,,,,TestWords/GA_MU_ZI.wav,,6086c333d6eb73cfdd564e90,2021-07-14_06h47.35.991,Agingstudy,2020.2.10,Win32,60,,,,,D,,,,,,,,,,,,,,,2,1,0.3599,0,4,4,4,1,2,NEW,NEW,,,,,,,,
,,,,,,,,,,,,,,,,TestWords/DA_CHU_VAI.wav,,6086c333d6eb73cfdd564e90,2021-07-14_06h47.35.991,Agingstudy,2020.2.10,Win32,60,,,,,D,,,,,,,,,,,,,,,2,1,0.8275,0,5,5,5,1,2,NEW,NEW,,,,,,,,
,,,,,,,,,,,,,,,,TestWords/ZO_RAI_FU.wav,,6086c333d6eb73cfdd564e90,2021-07-14_06h47.35.991,Agingstudy,2020.2.10,Win32,60,,,,,D,,,,,,,,,,,,,,,2,1,0.7704,0,6,6,6,1,2,NEW,SIMILAR,,,,,,,,
,,,,,,,,,,,,,,,,TestWords/BA_KAY_LI.wav,,6086c333d6eb73cfdd564e90,2021-07-14_06h47.35.991,Agingstudy,2020.2.10,Win32,60,,,,,D,,,,,,,,,,,,,,,2,1,1.1846,0,7,7,7,1,2,NEW,NEW,,,,,,,,
,,,,,,,,,,,,,,,,TestWords/VAI_HO_LA.wav,,6086c333d6eb73cfdd564e90,2021-07-14_06h47.35.991,Agingstudy,2020.2.10,Win32,60,,,,,D,,,,,,,,,,,,,,,2,1,0.4507,0,8,8,8,1,2,NEW,NEW,,,,,,,,
,,,,,,,,,,,,,,,,TestWords/DAI_RU_CHI.wav,,6086c333d6eb73cfdd564e90,2021-07-14_06h47.35.991,Agingstudy,2020.2.10,Win32,60,,,,,D,,,,,,,,,,,,,,,1,1,1.2347,0,9,9,9,1,1,OLD,OLD,,,,,,,,
,,,,,,,,,,,,,,,,TestWords/RAY_PA_TI.wav,,6086c333d6eb73cfdd564e90,2021-07-14_06h47.35.991,Agingstudy,2020.2.10,Win32,60,,,,,D,,,,,,,,,,,,,,,2,1,0.5183,0,10,10,10,1,2,NEW,NEW,,,,,,,,
,,,,,,,,,,,,,,,,TestWords/NO_WA_BAY.wav,,6086c333d6eb73cfdd564e90,2021-07-14_06h47.35.991,Agingstudy,2020.2.10,Win32,60,,,,,D,,,,,,,,,,,,,,,2,1,0.3788,0,11,11,11,1,2,NEW,NEW,,,,,,,,
,,,,,,,,,,,,,,,,TestWords/GA_MU_ZI.wav,,6086c333d6eb73cfdd564e90,2021-07-14_06h47.35.991,Agingstudy,2020.2.10,Win32,60,,,,,D,,,,,,,,,,,,,,,1,1,1.9901,0,12,12,12,1,1,OLD,OLD,,,,,,,,
,,,,,,,,,,,,,,,,TestWords/WAI_VU_NA.wav,,6086c333d6eb73cfdd564e90,2021-07-14_06h47.35.991,Agingstudy,2020.2.10,Win32,60,,,,,D,,,,,,,,,,,,,,,2,1,0.3903,0,13,13,13,1,2,NEW,NEW,,,,,,,,
,,,,,,,,,,,,,,,,TestWords/KAY_LI_BA.wav,,6086c333d6eb73cfdd564e90,2021-07-14_06h47.35.991,Agingstudy,2020.2.10,Win32,60,,,,,D,,,,,,,,,,,,,,,2,1,0.4174,0,14,14,14,1,2,NEW,SIMILAR,,,,,,,,
,,,,,,,,,,,,,,,,TestWords/FU_RAI_ZO.wav,,6086c333d6eb73cfdd564e90,2021-07-14_06h47.35.991,Agingstudy,2020.2.10,Win32,60,,,,,D,,,,,,,,,,,,,,,2,1,0.5291,0,15,15,15,1,2,NEW,SIMILAR,,,,,,,,
,,,,,,,,,,,,,,,,TestWords/KAI_LAY_TA.wav,,6086c333d6eb73cfdd564e90,2021-07-14_06h47.35.991,Agingstudy,2020.2.10,Win32,60,,,,,D,,,,,,,,,,,,,,,2,1,0.5675,0,16,16,16,1,2,NEW,NEW,,,,,,,,
,,,,,,,,,,,,,,,,TestWords/RAY_PA_TI.wav,,6086c333d6eb73cfdd564e90,2021-07-14_06h47.35.991,Agingstudy,2020.2.10,Win32,60,,,,,D,,,,,,,,,,,,,,,2,0,0.7763,0,17,17,17,1,1,OLD,OLD,,,,,,,,
,,,,,,,,,,,,,,,,TestWords/DAI_RU_CHI.wav,,6086c333d6eb73cfdd564e90,2021-07-14_06h47.35.991,Agingstudy,2020.2.10,Win32,60,,,,,D,,,,,,,,,,,,,,,1,1,1.0746,0,18,18,18,1,1,OLD,OLD,,,,,,,,
,,,,,,,,,,,,,,,,TestWords/WAI_NA_VU.wav,,6086c333d6eb73cfdd564e90,2021-07-14_06h47.35.991,Agingstudy,2020.2.10,Win32,60,,,,,D,,,,,,,,,,,,,,,1,0,2.8813,0,19,19,19,1,2,NEW,SIMILAR,,,,,,,,
,,,,,,,,,,,,,,,,TestWords/GA_MU_ZI.wav,,6086c333d6eb73cfdd564e90,2021-07-14_06h47.35.991,Agingstudy,2020.2.10,Win32,60,,,,,D,,,,,,,,,,,,,,,2,0,0.2376,0,20,20,20,1,1,OLD,OLD,,,,,,,,
,,,,,,,,,,,,,,,,TestWords/KAY_BA_LI.wav,,6086c333d6eb73cfdd564e90,2021-07-14_06h47.35.991,Agingstudy,2020.2.10,Win32,60,,,,,D,,,,,,,,,,,,,,,2,1,0.3673,0,21,21,21,1,2,NEW,SIMILAR,,,,,,,,
,,,,,,,,,,,,,,,,TestWords/KAI_LAY_TA.wav,,6086c333d6eb73cfdd564e90,2021-07-14_06h47.35.991,Agingstudy,2020.2.10,Win32,60,,,,,D,,,,,,,,,,,,,,,2,0,0.8565,0,22,22,22,1,1,OLD,OLD,,,,,,,,
,,,,,,,,,,,,,,,,TestWords/FU_ZO_RAI.wav,,6086c333d6eb73cfdd564e90,2021-07-14_06h47.35.991,Agingstudy,2020.2.10,Win32,60,,,,,D,,,,,,,,,,,,,,,2,1,0.9438,0,23,23,23,1,2,NEW,SIMILAR,,,,,,,,
,,,,,,,,,,,,,,,,TestWords/RAY_PA_TI.wav,,6086c333d6eb73cfdd564e90,2021-07-14_06h47.35.991,Agingstudy,2020.2.10,Win32,60,,,,,D,,,,,,,,,,,,,,,1,1,0.5872,0,24,24,24,1,1,OLD,OLD,,,,,,,,
,,,,,,,,,,,,,,,,TestWords/DAI_RU_CHI.wav,,6086c333d6eb73cfdd564e90,2021-07-14_06h47.35.991,Agingstudy,2020.2.10,Win32,60,,,,,D,,,,,,,,,,,,,,,1,1,0.725,0,25,25,25,1,1,OLD,OLD,,,,,,,,
,,,,,,,,,,,,,,,,TestWords/VU_NA_WAI.wav,,6086c333d6eb73cfdd564e90,2021-07-14_06h47.35.991,Agingstudy,2020.2.10,Win32,60,,,,,D,,,,,,,,,,,,,,,2,1,0.5054,0,26,26,26,1,2,NEW,SIMILAR,,,,,,,,
,,,,,,,,,,,,,,,,TestWords/RAI_FU_ZO.wav,,6086c333d6eb73cfdd564e90,2021-07-14_06h47.35.991,Agingstudy,2020.2.10,Win32,60,,,,,D,,,,,,,,,,,,,,,2,1,0.4069,0,27,27,27,1,2,NEW,SIMILAR,,,,,,,,
,,,,,,,,,,,,,,,,TestWords/GA_MU_ZI.wav,,6086c333d6eb73cfdd564e90,2021-07-14_06h47.35.991,Agingstudy,2020.2.10,Win32,60,,,,,D,,,,,,,,,,,,,,,2,0,0.801,0,28,28,28,1,1,OLD,OLD,,,,,,,,
,,,,,,,,,,,,,,,,TestWords/LI_BA_KAY.wav,,6086c333d6eb73cfdd564e90,2021-07-14_06h47.35.991,Agingstudy,2020.2.10,Win32,60,,,,,D,,,,,,,,,,,,,,,2,1,0.3049,0,29,29,29,1,2,NEW,SIMILAR,,,,,,,,
,,,,,,,,,,,,,,,,TestWords/KAI_LAY_TA.wav,,6086c333d6eb73cfdd564e90,2021-07-14_06h47.35.991,Agingstudy,2020.2.10,Win32,60,,,,,D,,,,,,,,,,,,,,,2,0,0.3344,0,30,30,30,1,1,OLD,OLD,,,,,,,,
,,,,,,,,,,,,,,,,TestWords/RAY_PA_TI.wav,,6086c333d6eb73cfdd564e90,2021-07-14_06h47.35.991,Agingstudy,2020.2.10,Win32,60,,,,,D,,,,,,,,,,,,,,,1,1,0.8677,0,31,31,31,1,1,OLD,OLD,,,,,,,,
,,,,,,,,,,,,,,,,TestWords/VU_WAI_NA.wav,,6086c333d6eb73cfdd564e90,2021-07-14_06h47.35.991,Agingstudy,2020.2.10,Win32,60,,,,,D,,,,,,,,,,,,,,,2,1,0.5368,0,32,32,32,1,2,NEW,SIMILAR,,,,,,,,
,,,,,,,,,,,,,,,,TestWords/DAI_RU_CHI.wav,,6086c333d6eb73cfdd564e90,2021-07-14_06h47.35.991,Agingstudy,2020.2.10,Win32,60,,,,,D,,,,,,,,,,,,,,,1,1,0.7409,0,33,33,33,1,1,OLD,OLD,,,,,,,,
,,,,,,,,,,,,,,,,TestWords/ZO_FU_RAI.wav,,6086c333d6eb73cfdd564e90,2021-07-14_06h47.35.991,Agingstudy,2020.2.10,Win32,60,,,,,D,,,,,,,,,,,,,,,2,1,0.5284,0,34,34,34,1,2,NEW,SIMILAR,,,,,,,,
,,,,,,,,,,,,,,,,TestWords/BA_LI_KAY.wav,,6086c333d6eb73cfdd564e90,2021-07-14_06h47.35.991,Agingstudy,2020.2.10,Win32,60,,,,,D,,,,,,,,,,,,,,,1,0,0.9894,0,35,35,35,1,2,NEW,SIMILAR,,,,,,,,
,,,,,,,,,,,,,,,,TestWords/KO_SU_FAI.wav,,6086c333d6eb73cfdd564e90,2021-07-14_06h47.35.991,Agingstudy,2020.2.10,Win32,60,,,,,D,,,,,,,,,,,,,,,2,1,0.3425,0,36,36,36,1,2,NEW,NEW,,,,,,,,
,,,,,,,,,,,,,,,,TestWords/KAI_LAY_TA.wav,,6086c333d6eb73cfdd564e90,2021-07-14_06h47.35.991,Agingstudy,2020.2.10,Win32,60,,,,,D,,,,,,,,,,,,,,,2,0,0.7627,0,37,37,37,1,1,OLD,OLD,,,,,,,,
,,,,,,,,,,,,,,,,TestWords/RAY_PA_TI.wav,,6086c333d6eb73cfdd564e90,2021-07-14_06h47.35.991,Agingstudy,2020.2.10,Win32,60,,,,,D,,,,,,,,,,,,,,,1,1,0.5896,0,38,38,38,1,1,OLD,OLD,,,,,,,,
,,,,,,,,,,,,,,,,TestWords/GA_MU_ZI.wav,,6086c333d6eb73cfdd564e90,2021-07-14_06h47.35.991,Agingstudy,2020.2.10,Win32,60,,,,,D,,,,,,,,,,,,,,,2,0,0.1358,0,39,39,39,1,1,OLD,OLD,,,,,,,,
,,,,,,,,,,,,,,,,TestWords/NA_VU_WAI.wav,,6086c333d6eb73cfdd564e90,2021-07-14_06h47.35.991,Agingstudy,2020.2.10,Win32,60,,,,,D,,,,,,,,,,,,,,,2,1,0.1839,0,40,40,40,1,2,NEW,SIMILAR,,,,,,,,
,,,,,,,,,,,,,,,,TestWords/DAI_RU_CHI.wav,,6086c333d6eb73cfdd564e90,2021-07-14_06h47.35.991,Agingstudy,2020.2.10,Win32,60,,,,,D,,,,,,,,,,,,,,,1,1,0.9677,0,41,41,41,1,1,OLD,OLD,,,,,,,,
,,,,,,,,,,,,,,,,TestWords/KO_SU_FAI.wav,,6086c333d6eb73cfdd564e90,2021-07-14_06h47.35.991,Agingstudy,2020.2.10,Win32,60,,,,,D,,,,,,,,,,,,,,,2,0,0.3522,0,42,42,42,1,1,OLD,OLD,,,,,,,,
,,,,,,,,,,,,,,,,TestWords/NA_WAI_VU.wav,,6086c333d6eb73cfdd564e90,2021-07-14_06h47.35.991,Agingstudy,2020.2.10,Win32,60,,,,,D,,,,,,,,,,,,,,,2,1,0.1717,0,43,43,43,1,2,NEW,SIMILAR,,,,,,,,
,,,,,,,,,,,,,,,,TestWords/KAI_LAY_TA.wav,,6086c333d6eb73cfdd564e90,2021-07-14_06h47.35.991,Agingstudy,2020.2.10,Win32,60,,,,,D,,,,,,,,,,,,,,,1,1,1.2063,0,44,44,44,1,1,OLD,OLD,,,,,,,,
,,,,,,,,,,,,,,,,TestWords/SI_VAI_CHU.wav,,6086c333d6eb73cfdd564e90,2021-07-14_06h47.35.991,Agingstudy,2020.2.10,Win32,60,,,,,D,,,,,,,,,,,,,,,2,1,0.5111,0,45,45,45,1,2,NEW,NEW,,,,,,,,
,,,,,,,,,,,,,,,,TestWords/RAY_PA_TI.wav,,6086c333d6eb73cfdd564e90,2021-07-14_06h47.35.991,Agingstudy,2020.2.10,Win32,60,,,,,D,,,,,,,,,,,,,,,1,1,0.4363,0,46,46,46,1,1,OLD,OLD,,,,,,,,
,,,,,,,,,,,,,,,,TestWords/GA_MU_ZI.wav,,6086c333d6eb73cfdd564e90,2021-07-14_06h47.35.991,Agingstudy,2020.2.10,Win32,60,,,,,D,,,,,,,,,,,,,,,2,0,0.6045,0,47,47,47,1,1,OLD,OLD,,,,,,,,
,,,,,,,,,,,,,,,,TestWords/LI_KAY_BA.wav,,6086c333d6eb73cfdd564e90,2021-07-14_06h47.35.991,Agingstudy,2020.2.10,Win32,60,,,,,D,,,,,,,,,,,,,,,2,1,0.8455,0,48,48,48,1,2,NEW,SIMILAR,,,,,,,,
,,,,,,,,,,,,,,,,TestWords/KO_SU_FAI.wav,,6086c333d6eb73cfdd564e90,2021-07-14_06h47.35.991,Agingstudy,2020.2.10,Win32,60,,,,,D,,,,,,,,,,,,,,,1,1,1.6854,0,49,49,49,1,1,OLD,OLD,,,,,,,,
,,,,,,,,,,,,,,,,TestWords/DAI_RU_CHI.wav,,6086c333d6eb73cfdd564e90,2021-07-14_06h47.35.991,Agingstudy,2020.2.10,Win32,60,,,,,D,,,,,,,,,,,,,,,1,1,0.6026,0,50,50,50,1,1,OLD,OLD,,,,,,,,
,,,,,,,,,,,,,,,,TestWords/DAY_PU_MO.wav,,6086c333d6eb73cfdd564e90,2021-07-14_06h47.35.991,Agingstudy,2020.2.10,Win32,60,,,,,D,,,,,,,,,,,,,,,2,1,0.3073,0,51,51,51,1,2,NEW,NEW,,,,,,,,
,,,,,,,,,,,,,,,,TestWords/KAI_LAY_TA.wav,,6086c333d6eb73cfdd564e90,2021-07-14_06h47.35.991,Agingstudy,2020.2.10,Win32,60,,,,,D,,,,,,,,,,,,,,,2,0,1.5016,0,52,52,52,1,1,OLD,OLD,,,,,,,,
,,,,,,,,,,,,,,,,TestWords/LU_HAI_BO.wav,,6086c333d6eb73cfdd564e90,2021-07-14_06h47.35.991,Agingstudy,2020.2.10,Win32,60,,,,,D,,,,,,,,,,,,,,,2,1,0.1413,0,53,53,53,1,2,NEW,NEW,,,,,,,,
,,,,,,,,,,,,,,,,TestWords/RAY_PA_TI.wav,,6086c333d6eb73cfdd564e90,2021-07-14_06h47.35.991,Agingstudy,2020.2.10,Win32,60,,,,,D,,,,,,,,,,,,,,,1,1,0.2339,0,54,54,54,1,1,OLD,OLD,,,,,,,,
,,,,,,,,,,,,,,,,TestWords/GA_MU_ZI.wav,,6086c333d6eb73cfdd564e90,2021-07-14_06h47.35.991,Agingstudy,2020.2.10,Win32,60,,,,,D,,,,,,,,,,,,,,,2,0,0.1616,0,55,55,55,1,1,OLD,OLD,,,,,,,,
,,,,,,,,,,,,,,,,TestWords/KO_SU_FAI.wav,,6086c333d6eb73cfdd564e90,2021-07-14_06h47.35.991,Agingstudy,2020.2.10,Win32,60,,,,,D,,,,,,,,,,,,,,,1,1,1.2693,0,56,56,56,1,1,OLD,OLD,,,,,,,,
,,,,,,,,,,,,,,,,TestWords/TAI_SA_GI.wav,,6086c333d6eb73cfdd564e90,2021-07-14_06h47.35.991,Agingstudy,2020.2.10,Win32,60,,,,,D,,,,,,,,,,,,,,,2,1,0.2512,0,57,57,57,1,2,NEW,NEW,,,,,,,,
,,,,,,,,,,,,,,,,TestWords/DAY_MO_PU.wav,,6086c333d6eb73cfdd564e90,2021-07-14_06h47.35.991,Agingstudy,2020.2.10,Win32,60,,,,,D,,,,,,,,,,,,,,,2,1,0.2749,0,58,58,58,1,2,NEW,SIMILAR,,,,,,,,
,,,,,,,,,,,,,,,,TestWords/DAI_RU_CHI.wav,,6086c333d6eb73cfdd564e90,2021-07-14_06h47.35.991,Agingstudy,2020.2.10,Win32,60,,,,,D,,,,,,,,,,,,,,,1,1,0.4574,0,59,59,59,1,1,OLD,OLD,,,,,,,,
,,,,,,,,,,,,,,,,TestWords/KAI_LAY_TA.wav,,6086c333d6eb73cfdd564e90,2021-07-14_06h47.35.991,Agingstudy,2020.2.10,Win32,60,,,,,D,,,,,,,,,,,,,,,2,0,0.3846,0,60,60,60,1,1,OLD,OLD,,,,,,,,
,,,,,,,,,,,,,,,,TestWords/LA_ZAY_CHAI.wav,,6086c333d6eb73cfdd564e90,2021-07-14_06h47.35.991,Agingstudy,2020.2.10,Win32,60,,,,,D,,,,,,,,,,,,,,,2,1,0.2347,0,61,61,61,1,2,NEW,NEW,,,,,,,,
,,,,,,,,,,,,,,,,TestWords/RAY_PA_TI.wav,,6086c333d6eb73cfdd564e90,2021-07-14_06h47.35.991,Agingstudy,2020.2.10,Win32,60,,,,,D,,,,,,,,,,,,,,,1,1,0.2912,0,62,62,62,1,1,OLD,OLD,,,,,,,,
,,,,,,,,,,,,,,,,TestWords/KO_SU_FAI.wav,,6086c333d6eb73cfdd564e90,2021-07-14_06h47.35.991,Agingstudy,2020.2.10,Win32,60,,,,,D,,,,,,,,,,,,,,,1,1,0.8569,0,63,63,63,1,1,OLD,OLD,,,,,,,,
,,,,,,,,,,,,,,,,TestWords/GA_MU_ZI.wav,,6086c333d6eb73cfdd564e90,2021-07-14_06h47.35.991,Agingstudy,2020.2.10,Win32,60,,,,,D,,,,,,,,,,,,,,,1,1,0.8844,0,64,64,64,1,1,OLD,OLD,,,,,,,,
,,,,,,,,,,,,,,,,TestWords/GI_TAI_SA.wav,,6086c333d6eb73cfdd564e90,2021-07-14_06h47.35.991,Agingstudy,2020.2.10,Win32,60,,,,,D,,,,,,,,,,,,,,,2,1,0.3735,0,65,65,65,1,2,NEW,SIMILAR,,,,,,,,
,,,,,,,,,,,,,,,,TestWords/MO_DAY_PU.wav,,6086c333d6eb73cfdd564e90,2021-07-14_06h47.35.991,Agingstudy,2020.2.10,Win32,60,,,,,D,,,,,,,,,,,,,,,2,1,0.2339,0,66,66,66,1,2,NEW,SIMILAR,,,,,,,,
,,,,,,,,,,,,,,,,TestWords/KAI_LAY_TA.wav,,6086c333d6eb73cfdd564e90,2021-07-14_06h47.35.991,Agingstudy,2020.2.10,Win32,60,,,,,D,,,,,,,,,,,,,,,2,0,0.5763,0,67,67,67,1,1,OLD,OLD,,,,,,,,
,,,,,,,,,,,,,,,,TestWords/KO_SU_FAI.wav,,6086c333d6eb73cfdd564e90,2021-07-14_06h47.35.991,Agingstudy,2020.2.10,Win32,60,,,,,D,,,,,,,,,,,,,,,1,1,0.803,0,68,68,68,1,1,OLD,OLD,,,,,,,,
,,,,,,,,,,,,,,,,TestWords/RAY_PA_TI.wav,,6086c333d6eb73cfdd564e90,2021-07-14_06h47.35.991,Agingstudy,2020.2.10,Win32,60,,,,,D,,,,,,,,,,,,,,,1,1,0.2038,0,69,69,69,1,1,OLD,OLD,,,,,,,,
,,,,,,,,,,,,,,,,TestWords/NU_CHAY_SO.wav,,6086c333d6eb73cfdd564e90,2021-07-14_06h47.35.991,Agingstudy,2020.2.10,Win32,60,,,,,D,,,,,,,,,,,,,,,2,1,0.1177,0,70,70,70,1,2,NEW,NEW,,,,,,,,
,,,,,,,,,,,,,,,,TestWords/GA_MU_ZI.wav,,6086c333d6eb73cfdd564e90,2021-07-14_06h47.35.991,Agingstudy,2020.2.10,Win32,60,,,,,D,,,,,,,,,,,,,,,2,0,1.0422,0,71,71,71,1,1,OLD,OLD,,,,,,,,
,,,,,,,,,,,,,,,,TestWords/DAI_RU_CHI.wav,,6086c333d6eb73cfdd564e90,2021-07-14_06h47.35.991,Agingstudy,2020.2.10,Win32,60,,,,,D,,,,,,,,,,,,,,,1,1,0.7218,0,72,72,72,1,1,OLD,OLD,,,,,,,,
,,,,,,,,,,,,,,,,TestWords/SA_TAI_GI.wav,,6086c333d6eb73cfdd564e90,2021-07-14_06h47.35.991,Agingstudy,2020.2.10,Win32,60,,,,,D,,,,,,,,,,,,,,,2,1,0.4781,0,73,73,73,1,2,NEW,SIMILAR,,,,,,,,
,,,,,,,,,,,,,,,,TestWords/PU_DAY_MO.wav,,6086c333d6eb73cfdd564e90,2021-07-14_06h47.35.991,Agingstudy,2020.2.10,Win32,60,,,,,D,,,,,,,,,,,,,,,2,1,0.1729,0,74,74,74,1,2,NEW,SIMILAR,,,,,,,,
,,,,,,,,,,,,,,,,TestWords/KO_SU_FAI.wav,,6086c333d6eb73cfdd564e90,2021-07-14_06h47.35.991,Agingstudy,2020.2.10,Win32,60,,,,,D,,,,,,,,,,,,,,,1,1,0.6396,0,75,75,75,1,1,OLD,OLD,,,,,,,,
,,,,,,,,,,,,,,,,TestWords/KAI_LAY_TA.wav,,6086c333d6eb73cfdd564e90,2021-07-14_06h47.35.991,Agingstudy,2020.2.10,Win32,60,,,,,D,,,,,,,,,,,,,,,2,0,1.2514,0,76,76,76,1,1,OLD,OLD,,,,,,,,
,,,,,,,,,,,,,,,,TestWords/HA_SI_JAI.wav,,6086c333d6eb73cfdd564e90,2021-07-14_06h47.35.991,Agingstudy,2020.2.10,Win32,60,,,,,D,,,,,,,,,,,,,,,2,1,0.434,0,77,77,77,1,2,NEW,NEW,,,,,,,,
,,,,,,,,,,,,,,,,TestWords/RAY_PA_TI.wav,,6086c333d6eb73cfdd564e90,2021-07-14_06h47.35.991,Agingstudy,2020.2.10,Win32,60,,,,,D,,,,,,,,,,,,,,,1,1,0.0703,0,78,78,78,1,1,OLD,OLD,,,,,,,,
,,,,,,,,,,,,,,,,TestWords/DAI_RU_CHI.wav,,6086c333d6eb73cfdd564e90,2021-07-14_06h47.35.991,Agingstudy,2020.2.10,Win32,60,,,,,D,,,,,,,,,,,,,,,1,1,0.7571,0,79,79,79,1,1,OLD,OLD,,,,,,,,
,,,,,,,,,,,,,,,,TestWords/GA_MU_ZI.wav,,6086c333d6eb73cfdd564e90,2021-07-14_06h47.35.991,Agingstudy,2020.2.10,Win32,60,,,,,D,,,,,,,,,,,,,,,1,1,1.0242,0,80,80,80,1,1,OLD,OLD,,,,,,,,
,,,,,,,,,,,,,,,,TestWords/SA_GI_TAI.wav,,6086c333d6eb73cfdd564e90,2021-07-14_06h47.35.991,Agingstudy,2020.2.10,Win32,60,,,,,D,,,,,,,,,,,,,,,2,1,0.0881,0,81,81,81,1,2,NEW,SIMILAR,,,,,,,,
,,,,,,,,,,,,,,,,TestWords/KO_SU_FAI.wav,,6086c333d6eb73cfdd564e90,2021-07-14_06h47.35.991,Agingstudy,2020.2.10,Win32,60,,,,,D,,,,,,,,,,,,,,,1,1,0.4007,0,82,82,82,1,1,OLD,OLD,,,,,,,,
,,,,,,,,,,,,,,,,TestWords/KAI_LAY_TA.wav,,6086c333d6eb73cfdd564e90,2021-07-14_06h47.35.991,Agingstudy,2020.2.10,Win32,60,,,,,D,,,,,,,,,,,,,,,2,0,0.3597,0,83,83,83,1,1,OLD,OLD,,,,,,,,
,,,,,,,,,,,,,,,,TestWords/PU_MO_DAY.wav,,6086c333d6eb73cfdd564e90,2021-07-14_06h47.35.991,Agingstudy,2020.2.10,Win32,60,,,,,D,,,,,,,,,,,,,,,2,1,0.2912,0,84,84,84,1,2,NEW,SIMILAR,,,,,,,,
,,,,,,,,,,,,,,,,TestWords/RAY_PA_TI.wav,,6086c333d6eb73cfdd564e90,2021-07-14_06h47.35.991,Agingstudy,2020.2.10,Win32,60,,,,,D,,,,,,,,,,,,,,,1,1,0.2573,0,85,85,85,1,1,OLD,OLD,,,,,,,,
,,,,,,,,,,,,,,,,TestWords/HI_NAY_VA.wav,,6086c333d6eb73cfdd564e90,2021-07-14_06h47.35.991,Agingstudy,2020.2.10,Win32,60,,,,,D,,,,,,,,,,,,,,,2,1,0.201,0,86,86,86,1,2,NEW,NEW,,,,,,,,
,,,,,,,,,,,,,,,,TestWords/DAI_RU_CHI.wav,,6086c333d6eb73cfdd564e90,2021-07-14_06h47.35.991,Agingstudy,2020.2.10,Win32,60,,,,,D,,,,,,,,,,,,,,,1,1,0.5781,0,87,87,87,1,1,OLD,OLD,,,,,,,,
,,,,,,,,,,,,,,,,TestWords/TAI_GI_SA.wav,,6086c333d6eb73cfdd564e90,2021-07-14_06h47.35.991,Agingstudy,2020.2.10,Win32,60,,,,,D,,,,,,,,,,,,,,,2,1,0.4286,0,88,88,88,1,2,NEW,SIMILAR,,,,,,,,
,,,,,,,,,,,,,,,,TestWords/KO_SU_FAI.wav,,6086c333d6eb73cfdd564e90,2021-07-14_06h47.35.991,Agingstudy,2020.2.10,Win32,60,,,,,D,,,,,,,,,,,,,,,1,1,0.7676,0,89,89,89,1,1,OLD,OLD,,,,,,,,
,,,,,,,,,,,,,,,,TestWords/GA_MU_ZI.wav,,6086c333d6eb73cfdd564e90,2021-07-14_06h47.35.991,Agingstudy,2020.2.10,Win32,60,,,,,D,,,,,,,,,,,,,,,2,0,0.1439,0,90,90,90,1,1,OLD,OLD,,,,,,,,
,,,,,,,,,,,,,,,,TestWords/PAI_LU_WA.wav,,6086c333d6eb73cfdd564e90,2021-07-14_06h47.35.991,Agingstudy,2020.2.10,Win32,60,,,,,D,,,,,,,,,,,,,,,2,1,0.1238,0,91,91,91,1,2,NEW,NEW,,,,,,,,
,,,,,,,,,,,,,,,,TestWords/KAI_LAY_TA.wav,,6086c333d6eb73cfdd564e90,2021-07-14_06h47.35.991,Agingstudy,2020.2.10,Win32,60,,,,,D,,,,,,,,,,,,,,,2,0,1.0568,0,92,92,92,1,1,OLD,OLD,,,,,,,,
,,,,,,,,,,,,,,,,TestWords/MO_PU_DAY.wav,,6086c333d6eb73cfdd564e90,2021-07-14_06h47.35.991,Agingstudy,2020.2.10,Win32,60,,,,,D,,,,,,,,,,,,,,,2,1,0.2339,0,93,93,93,1,2,NEW,SIMILAR,,,,,,,,
,,,,,,,,,,,,,,,,TestWords/KO_SU_FAI.wav,,6086c333d6eb73cfdd564e90,2021-07-14_06h47.35.991,Agingstudy,2020.2.10,Win32,60,,,,,D,,,,,,,,,,,,,,,1,1,0.384,0,94,94,94,1,1,OLD,OLD,,,,,,,,
,,,,,,,,,,,,,,,,TestWords/GI_SA_TAI.wav,,6086c333d6eb73cfdd564e90,2021-07-14_06h47.35.991,Agingstudy,2020.2.10,Win32,60,,,,,D,,,,,,,,,,,,,,,2,1,0.1936,0,95,95,95,1,2,NEW,SIMILAR,,,,,,,,
,,,,,,,,,,,,,,,,TestWords/HO_NAY_VA.wav,,6086c333d6eb73cfdd564e90,2021-07-14_06h47.35.991,Agingstudy,2020.2.10,Win32,60,,,,,D,,,,,,,,,,,,,,,2,1,0.1505,0,96,96,96,1,2,NEW,NEW,,,,,,,,
,,,,,,,,,,,,,,,,TestWords/GU_CHAI_PI.wav,,6086c333d6eb73cfdd564e90,2021-07-14_06h47.35.991,Agingstudy,2020.2.10,Win32,60,,,,,D,,,,,,,,,,,,,,,2,1,0.4342,0,97,97,97,1,2,NEW,NEW,,,,,,,,
,,,,,,,,,,,,,,,,TestWords/KO_SU_FAI.wav,,6086c333d6eb73cfdd564e90,2021-07-14_06h47.35.991,Agingstudy,2020.2.10,Win32,60,,,,,D,,,,,,,,,,,,,,,1,1,0.4236,0,98,98,98,1,1,OLD,OLD,,,,,,,,
,,,,,,,,,,,,,,,,TestWords/WAI_RO_JU.wav,,6086c333d6eb73cfdd564e90,2021-07-14_06h47.35.991,Agingstudy,2020.2.10,Win32,60,,,,,D,,,,,,,,,,,,,,,2,1,0.32,0,99,99,99,1,2,NEW,NEW,,,,,,,,
,,,,,,,,,,,,,,,,,,6086c333d6eb73cfdd564e90,2021-07-14_06h47.35.991,Agingstudy,2020.2.10,Win32,60,,,,,,,,,,,,,,,,,,,,,,,,,,,,,,,0,0,0,0,1,,,
,,,,,,,,,,,,,,,,,,6086c333d6eb73cfdd564e90,2021-07-14_06h47.35.991,Agingstudy,2020.2.10,Win32,60,,,,,,,,,,,,,,,,,,,,,,,,,,,,,,,,,,,,return,26.3008,
