Welcome0Continue.keys,Welcome0Continue.rt,SoundCheckBegin.keys,SoundCheckBegin.rt,SoundCheckEndKey.keys,SoundCheckEndKey.rt,HeadphoneContinueKey.keys,HeadphoneContinueKey.rt,CheckResp.keys,CheckResp.corr,CheckResp.rt,HeadphoneLoop.thisRepN,HeadphoneLoop.thisTrialN,HeadphoneLoop.thisN,HeadphoneLoop.thisIndex,HeadphoneLoop.ran,File,Correct,participant,date,expName,psychopyVersion,OS,frameRate,RepeatAgainKey.keys,RepeatAgainKey.rt,RepeatAgainLoop.thisRepN,RepeatAgainLoop.thisTrialN,RepeatAgainLoop.thisN,RepeatAgainLoop.thisIndex,RepeatAgainLoop.ran,Headphone_retest.thisRepN,Headphone_retest.thisTrialN,Headphone_retest.thisN,Headphone_retest.thisIndex,Headphone_retest.ran
space,17.0253,space,12.4997,space,5.3064,space,23.8139,2,0,8.3614,0,0,0,1,1,Headphone/t1_2.wav,1,60b18fbfb6c5d8edfaa5bed0,2021-08-05_21h29.41.681,Agingstudy,2020.2.10,Win32,60,,,,,,,,,,,,
,,,,,,,,3,1,20.6663,0,1,1,4,1,Headphone/t3_1.wav,3,60b18fbfb6c5d8edfaa5bed0,2021-08-05_21h29.41.681,Agingstudy,2020.2.10,Win32,60,,,,,,,,,,,,
,,,,,,,,3,0,1.4446,0,2,2,3,1,Headphone/t2_2.wav,2,60b18fbfb6c5d8edfaa5bed0,2021-08-05_21h29.41.681,Agingstudy,2020.2.10,Win32,60,,,,,,,,,,,,
,,,,,,,,3,0,6.2408,0,3,3,0,1,Headphone/t1_1.wav,1,60b18fbfb6c5d8edfaa5bed0,2021-08-05_21h29.41.681,Agingstudy,2020.2.10,Win32,60,,,,,,,,,,,,
,,,,,,,,2,0,0.7834,0,4,4,5,1,Headphone/t3_2.wav,3,60b18fbfb6c5d8edfaa5bed0,2021-08-05_21h29.41.681,Agingstudy,2020.2.10,Win32,60,,,,,,,,,,,,
,,,,,,,,3,0,1.6634,0,5,5,2,1,Headphone/t2_1.wav,2,60b18fbfb6c5d8edfaa5bed0,2021-08-05_21h29.41.681,Agingstudy,2020.2.10,Win32,60,,,,,,,,,,,,
,,,,,,,,,,,,,,,,,,60b18fbfb6c5d8edfaa5bed0,2021-08-05_21h29.41.681,Agingstudy,2020.2.10,Win32,60,space,5.6146,0,0,0,0,1,,,,,
,,,,,,,,,,,,,,,,,,60b18fbfb6c5d8edfaa5bed0,2021-08-05_21h29.41.681,Agingstudy,2020.2.10,Win32,60,,,,,,,,0,0,0,0,1
,,,,,,,,1,0,4.7837,0,0,0,3,1,Headphone/t2_2.wav,2,60b18fbfb6c5d8edfaa5bed0,2021-08-05_21h29.41.681,Agingstudy,2020.2.10,Win32,60,,,,,,,,,,,,
,,,,,,,,2,0,0.8661,0,1,1,1,1,Headphone/t1_2.wav,1,60b18fbfb6c5d8edfaa5bed0,2021-08-05_21h29.41.681,Agingstudy,2020.2.10,Win32,60,,,,,,,,,,,,
,,,,,,,,1,0,0.7426,0,2,2,5,1,Headphone/t3_2.wav,3,60b18fbfb6c5d8edfaa5bed0,2021-08-05_21h29.41.681,Agingstudy,2020.2.10,Win32,60,,,,,,,,,,,,
,,,,,,,,2,0,0.2521,0,3,3,0,1,Headphone/t1_1.wav,1,60b18fbfb6c5d8edfaa5bed0,2021-08-05_21h29.41.681,Agingstudy,2020.2.10,Win32,60,,,,,,,,,,,,
,,,,,,,,1,0,1.3965,0,4,4,2,1,Headphone/t2_1.wav,2,60b18fbfb6c5d8edfaa5bed0,2021-08-05_21h29.41.681,Agingstudy,2020.2.10,Win32,60,,,,,,,,,,,,
,,,,,,,,3,1,1.0794,0,5,5,4,1,Headphone/t3_1.wav,3,60b18fbfb6c5d8edfaa5bed0,2021-08-05_21h29.41.681,Agingstudy,2020.2.10,Win32,60,,,,,,,,,,,,
,,,,,,,,,,,,,,,,,,60b18fbfb6c5d8edfaa5bed0,2021-08-05_21h29.41.681,Agingstudy,2020.2.10,Win32,60,space,8.5219,0,0,0,0,1,,,,,
,,,,,,,,,,,,,,,,,,60b18fbfb6c5d8edfaa5bed0,2021-08-05_21h29.41.681,Agingstudy,2020.2.10,Win32,60,,,,,,,,1,0,1,0,1
,,,,,,,,2,0,1.3888,0,0,0,1,1,Headphone/t1_2.wav,1,60b18fbfb6c5d8edfaa5bed0,2021-08-05_21h29.41.681,Agingstudy,2020.2.10,Win32,60,,,,,,,,,,,,
,,,,,,,,2,0,1.4353,0,1,1,0,1,Headphone/t1_1.wav,1,60b18fbfb6c5d8edfaa5bed0,2021-08-05_21h29.41.681,Agingstudy,2020.2.10,Win32,60,,,,,,,,,,,,
,,,,,,,,3,0,1.2723,0,2,2,3,1,Headphone/t2_2.wav,2,60b18fbfb6c5d8edfaa5bed0,2021-08-05_21h29.41.681,Agingstudy,2020.2.10,Win32,60,,,,,,,,,,,,
,,,,,,,,1,0,2.3142,0,3,3,4,1,Headphone/t3_1.wav,3,60b18fbfb6c5d8edfaa5bed0,2021-08-05_21h29.41.681,Agingstudy,2020.2.10,Win32,60,,,,,,,,,,,,
,,,,,,,,2,0,0.2199,0,4,4,5,1,Headphone/t3_2.wav,3,60b18fbfb6c5d8edfaa5bed0,2021-08-05_21h29.41.681,Agingstudy,2020.2.10,Win32,60,,,,,,,,,,,,
,,,,,,,,1,0,1.172,0,5,5,2,1,Headphone/t2_1.wav,2,60b18fbfb6c5d8edfaa5bed0,2021-08-05_21h29.41.681,Agingstudy,2020.2.10,Win32,60,,,,,,,,,,,,
,,,,,,,,,,,,,,,,,,60b18fbfb6c5d8edfaa5bed0,2021-08-05_21h29.41.681,Agingstudy,2020.2.10,Win32,60,space,3.0851,0,0,0,0,1,,,,,
,,,,,,,,,,,,,,,,,,60b18fbfb6c5d8edfaa5bed0,2021-08-05_21h29.41.681,Agingstudy,2020.2.10,Win32,60,,,,,,,,2,0,2,0,1
,,,,,,,,2,0,0.2397,0,0,0,4,1,Headphone/t3_1.wav,3,60b18fbfb6c5d8edfaa5bed0,2021-08-05_21h29.41.681,Agingstudy,2020.2.10,Win32,60,,,,,,,,,,,,
,,,,,,,,1,1,1.9522,0,1,1,1,1,Headphone/t1_2.wav,1,60b18fbfb6c5d8edfaa5bed0,2021-08-05_21h29.41.681,Agingstudy,2020.2.10,Win32,60,,,,,,,,,,,,
,,,,,,,,2,0,0.8736,0,2,2,5,1,Headphone/t3_2.wav,3,60b18fbfb6c5d8edfaa5bed0,2021-08-05_21h29.41.681,Agingstudy,2020.2.10,Win32,60,,,,,,,,,,,,
,,,,,,,,2,1,0.8738,0,3,3,3,1,Headphone/t2_2.wav,2,60b18fbfb6c5d8edfaa5bed0,2021-08-05_21h29.41.681,Agingstudy,2020.2.10,Win32,60,,,,,,,,,,,,
,,,,,,,,3,0,0.4389,0,4,4,0,1,Headphone/t1_1.wav,1,60b18fbfb6c5d8edfaa5bed0,2021-08-05_21h29.41.681,Agingstudy,2020.2.10,Win32,60,,,,,,,,,,,,
,,,,,,,,1,0,0.0863,0,5,5,2,1,Headphone/t2_1.wav,2,60b18fbfb6c5d8edfaa5bed0,2021-08-05_21h29.41.681,Agingstudy,2020.2.10,Win32,60,,,,,,,,,,,,
,,,,,,,,,,,,,,,,,,60b18fbfb6c5d8edfaa5bed0,2021-08-05_21h29.41.681,Agingstudy,2020.2.10,Win32,60,space,2.823,0,0,0,0,1,,,,,
,,,,,,,,,,,,,,,,,,60b18fbfb6c5d8edfaa5bed0,2021-08-05_21h29.41.681,Agingstudy,2020.2.10,Win32,60,,,,,,,,3,0,3,0,1
,,,,,,,,3,0,0.7379,0,0,0,0,1,Headphone/t1_1.wav,1,60b18fbfb6c5d8edfaa5bed0,2021-08-05_21h29.41.681,Agingstudy,2020.2.10,Win32,60,,,,,,,,,,,,
,,,,,,,,1,0,0.0006,0,1,1,2,1,Headphone/t2_1.wav,2,60b18fbfb6c5d8edfaa5bed0,2021-08-05_21h29.41.681,Agingstudy,2020.2.10,Win32,60,,,,,,,,,,,,
,,,,,,,,2,0,0.6178,0,2,2,4,1,Headphone/t3_1.wav,3,60b18fbfb6c5d8edfaa5bed0,2021-08-05_21h29.41.681,Agingstudy,2020.2.10,Win32,60,,,,,,,,,,,,
,,,,,,,,3,0,0.6847,0,3,3,3,1,Headphone/t2_2.wav,2,60b18fbfb6c5d8edfaa5bed0,2021-08-05_21h29.41.681,Agingstudy,2020.2.10,Win32,60,,,,,,,,,,,,
,,,,,,,,2,0,0.705,0,4,4,5,1,Headphone/t3_2.wav,3,60b18fbfb6c5d8edfaa5bed0,2021-08-05_21h29.41.681,Agingstudy,2020.2.10,Win32,60,,,,,,,,,,,,
,,,,,,,,3,0,1.3535,0,5,5,1,1,Headphone/t1_2.wav,1,60b18fbfb6c5d8edfaa5bed0,2021-08-05_21h29.41.681,Agingstudy,2020.2.10,Win32,60,,,,,,,,,,,,
,,,,,,,,,,,,,,,,,,60b18fbfb6c5d8edfaa5bed0,2021-08-05_21h29.41.681,Agingstudy,2020.2.10,Win32,60,space,2.5846,0,0,0,0,1,,,,,
,,,,,,,,,,,,,,,,,,60b18fbfb6c5d8edfaa5bed0,2021-08-05_21h29.41.681,Agingstudy,2020.2.10,Win32,60,,,,,,,,4,0,4,0,1
,,,,,,,,3,0,2.1846,0,0,0,2,1,Headphone/t2_1.wav,2,60b18fbfb6c5d8edfaa5bed0,2021-08-05_21h29.41.681,Agingstudy,2020.2.10,Win32,60,,,,,,,,,,,,
,,,,,,,,1,0,1.0861,0,1,1,3,1,Headphone/t2_2.wav,2,60b18fbfb6c5d8edfaa5bed0,2021-08-05_21h29.41.681,Agingstudy,2020.2.10,Win32,60,,,,,,,,,,,,
,,,,,,,,3,0,0.8008,0,2,2,1,1,Headphone/t1_2.wav,1,60b18fbfb6c5d8edfaa5bed0,2021-08-05_21h29.41.681,Agingstudy,2020.2.10,Win32,60,,,,,,,,,,,,
,,,,,,,,3,1,1.4186,0,3,3,5,1,Headphone/t3_2.wav,3,60b18fbfb6c5d8edfaa5bed0,2021-08-05_21h29.41.681,Agingstudy,2020.2.10,Win32,60,,,,,,,,,,,,
,,,,,,,,2,0,0.0663,0,4,4,0,1,Headphone/t1_1.wav,1,60b18fbfb6c5d8edfaa5bed0,2021-08-05_21h29.41.681,Agingstudy,2020.2.10,Win32,60,,,,,,,,,,,,
,,,,,,,,2,0,0.4345,0,5,5,4,1,Headphone/t3_1.wav,3,60b18fbfb6c5d8edfaa5bed0,2021-08-05_21h29.41.681,Agingstudy,2020.2.10,Win32,60,,,,,,,,,,,,
,,,,,,,,,,,,,,,,,,60b18fbfb6c5d8edfaa5bed0,2021-08-05_21h29.41.681,Agingstudy,2020.2.10,Win32,60,space,2.735,0,0,0,0,1,,,,,
,,,,,,,,,,,,,,,,,,60b18fbfb6c5d8edfaa5bed0,2021-08-05_21h29.41.681,Agingstudy,2020.2.10,Win32,60,,,,,,,,5,0,5,0,1
,,,,,,,,2,0,1.2852,0,0,0,5,1,Headphone/t3_2.wav,3,60b18fbfb6c5d8edfaa5bed0,2021-08-05_21h29.41.681,Agingstudy,2020.2.10,Win32,60,,,,,,,,,,,,
,,,,,,,,1,0,0.1851,0,1,1,2,1,Headphone/t2_1.wav,2,60b18fbfb6c5d8edfaa5bed0,2021-08-05_21h29.41.681,Agingstudy,2020.2.10,Win32,60,,,,,,,,,,,,
,,,,,,,,1,0,0.9176,0,2,2,4,1,Headphone/t3_1.wav,3,60b18fbfb6c5d8edfaa5bed0,2021-08-05_21h29.41.681,Agingstudy,2020.2.10,Win32,60,,,,,,,,,,,,
,,,,,,,,1,0,1.0682,0,3,3,3,1,Headphone/t2_2.wav,2,60b18fbfb6c5d8edfaa5bed0,2021-08-05_21h29.41.681,Agingstudy,2020.2.10,Win32,60,,,,,,,,,,,,
,,,,,,,,1,1,0.7513,0,4,4,0,1,Headphone/t1_1.wav,1,60b18fbfb6c5d8edfaa5bed0,2021-08-05_21h29.41.681,Agingstudy,2020.2.10,Win32,60,,,,,,,,,,,,
,,,,,,,,2,0,0.7018,0,5,5,1,1,Headphone/t1_2.wav,1,60b18fbfb6c5d8edfaa5bed0,2021-08-05_21h29.41.681,Agingstudy,2020.2.10,Win32,60,,,,,,,,,,,,
,,,,,,,,,,,,,,,,,,60b18fbfb6c5d8edfaa5bed0,2021-08-05_21h29.41.681,Agingstudy,2020.2.10,Win32,60,space,2.9515,0,0,0,0,1,,,,,
,,,,,,,,,,,,,,,,,,60b18fbfb6c5d8edfaa5bed0,2021-08-05_21h29.41.681,Agingstudy,2020.2.10,Win32,60,,,,,,,,6,0,6,0,1
,,,,,,,,2,0,0.217,0,0,0,0,1,Headphone/t1_1.wav,1,60b18fbfb6c5d8edfaa5bed0,2021-08-05_21h29.41.681,Agingstudy,2020.2.10,Win32,60,,,,,,,,,,,,
,,,,,,,,2,0,0.7185,0,1,1,5,1,Headphone/t3_2.wav,3,60b18fbfb6c5d8edfaa5bed0,2021-08-05_21h29.41.681,Agingstudy,2020.2.10,Win32,60,,,,,,,,,,,,
,,,,,,,,3,1,16.2503,0,2,2,4,1,Headphone/t3_1.wav,3,60b18fbfb6c5d8edfaa5bed0,2021-08-05_21h29.41.681,Agingstudy,2020.2.10,Win32,60,,,,,,,,,,,,
,,,,,,,,2,1,0.4478,0,3,3,2,1,Headphone/t2_1.wav,2,60b18fbfb6c5d8edfaa5bed0,2021-08-05_21h29.41.681,Agingstudy,2020.2.10,Win32,60,,,,,,,,,,,,
,,,,,,,,3,0,0.7484,0,4,4,3,1,Headphone/t2_2.wav,2,60b18fbfb6c5d8edfaa5bed0,2021-08-05_21h29.41.681,Agingstudy,2020.2.10,Win32,60,,,,,,,,,,,,
,,,,,,,,1,1,0.7505,0,5,5,1,1,Headphone/t1_2.wav,1,60b18fbfb6c5d8edfaa5bed0,2021-08-05_21h29.41.681,Agingstudy,2020.2.10,Win32,60,,,,,,,,,,,,
,,,,,,,,,,,,,,,,,,60b18fbfb6c5d8edfaa5bed0,2021-08-05_21h29.41.681,Agingstudy,2020.2.10,Win32,60,space,2.546,0,0,0,0,1,,,,,
,,,,,,,,,,,,,,,,,,60b18fbfb6c5d8edfaa5bed0,2021-08-05_21h29.41.681,Agingstudy,2020.2.10,Win32,60,,,,,,,,7,0,7,0,1
,,,,,,,,3,0,1.1186,0,0,0,3,1,Headphone/t2_2.wav,2,60b18fbfb6c5d8edfaa5bed0,2021-08-05_21h29.41.681,Agingstudy,2020.2.10,Win32,60,,,,,,,,,,,,
,,,,,,,,2,0,0.5971,0,1,1,4,1,Headphone/t3_1.wav,3,60b18fbfb6c5d8edfaa5bed0,2021-08-05_21h29.41.681,Agingstudy,2020.2.10,Win32,60,,,,,,,,,,,,
,,,,,,,,1,1,0.6831,0,2,2,0,1,Headphone/t1_1.wav,1,60b18fbfb6c5d8edfaa5bed0,2021-08-05_21h29.41.681,Agingstudy,2020.2.10,Win32,60,,,,,,,,,,,,
,,,,,,,,2,0,0.571,0,3,3,1,1,Headphone/t1_2.wav,1,60b18fbfb6c5d8edfaa5bed0,2021-08-05_21h29.41.681,Agingstudy,2020.2.10,Win32,60,,,,,,,,,,,,
,,,,,,,,1,0,0.076,0,4,4,2,1,Headphone/t2_1.wav,2,60b18fbfb6c5d8edfaa5bed0,2021-08-05_21h29.41.681,Agingstudy,2020.2.10,Win32,60,,,,,,,,,,,,
,,,,,,,,1,0,0.4728,0,5,5,5,1,Headphone/t3_2.wav,3,60b18fbfb6c5d8edfaa5bed0,2021-08-05_21h29.41.681,Agingstudy,2020.2.10,Win32,60,,,,,,,,,,,,
,,,,,,,,,,,,,,,,,,60b18fbfb6c5d8edfaa5bed0,2021-08-05_21h29.41.681,Agingstudy,2020.2.10,Win32,60,space,3.456,0,0,0,0,1,,,,,
,,,,,,,,,,,,,,,,,,60b18fbfb6c5d8edfaa5bed0,2021-08-05_21h29.41.681,Agingstudy,2020.2.10,Win32,60,,,,,,,,8,0,8,0,1
,,,,,,,,3,0,1.3853,0,0,0,0,1,Headphone/t1_1.wav,1,60b18fbfb6c5d8edfaa5bed0,2021-08-05_21h29.41.681,Agingstudy,2020.2.10,Win32,60,,,,,,,,,,,,
,,,,,,,,1,1,0.1203,0,1,1,1,1,Headphone/t1_2.wav,1,60b18fbfb6c5d8edfaa5bed0,2021-08-05_21h29.41.681,Agingstudy,2020.2.10,Win32,60,,,,,,,,,,,,
,,,,,,,,1,0,1.027,0,2,2,5,1,Headphone/t3_2.wav,3,60b18fbfb6c5d8edfaa5bed0,2021-08-05_21h29.41.681,Agingstudy,2020.2.10,Win32,60,,,,,,,,,,,,
,,,,,,,,1,0,0.4056,0,3,3,2,1,Headphone/t2_1.wav,2,60b18fbfb6c5d8edfaa5bed0,2021-08-05_21h29.41.681,Agingstudy,2020.2.10,Win32,60,,,,,,,,,,,,
,,,,,,,,1,0,0.5563,0,4,4,3,1,Headphone/t2_2.wav,2,60b18fbfb6c5d8edfaa5bed0,2021-08-05_21h29.41.681,Agingstudy,2020.2.10,Win32,60,,,,,,,,,,,,
,,,,,,,,2,0,1.1186,0,5,5,4,1,Headphone/t3_1.wav,3,60b18fbfb6c5d8edfaa5bed0,2021-08-05_21h29.41.681,Agingstudy,2020.2.10,Win32,60,,,,,,,,,,,,
,,,,,,,,,,,,,,,,,,60b18fbfb6c5d8edfaa5bed0,2021-08-05_21h29.41.681,Agingstudy,2020.2.10,Win32,60,space,9.0684,0,0,0,0,1,,,,,
,,,,,,,,,,,,,,,,,,60b18fbfb6c5d8edfaa5bed0,2021-08-05_21h29.41.681,Agingstudy,2020.2.10,Win32,60,,,,,,,,9,0,9,0,1
,,,,,,,,2,0,0.5512,0,0,0,5,1,Headphone/t3_2.wav,3,60b18fbfb6c5d8edfaa5bed0,2021-08-05_21h29.41.681,Agingstudy,2020.2.10,Win32,60,,,,,,,,,,,,
,,,,,,,,3,0,0.936,0,1,1,3,1,Headphone/t2_2.wav,2,60b18fbfb6c5d8edfaa5bed0,2021-08-05_21h29.41.681,Agingstudy,2020.2.10,Win32,60,,,,,,,,,,,,
,,,,,,,,2,1,0.3225,0,2,2,2,1,Headphone/t2_1.wav,2,60b18fbfb6c5d8edfaa5bed0,2021-08-05_21h29.41.681,Agingstudy,2020.2.10,Win32,60,,,,,,,,,,,,
,,,,,,,,2,0,0.6016,0,3,3,1,1,Headphone/t1_2.wav,1,60b18fbfb6c5d8edfaa5bed0,2021-08-05_21h29.41.681,Agingstudy,2020.2.10,Win32,60,,,,,,,,,,,,
,,,,,,,,3,0,0.8516,0,4,4,0,1,Headphone/t1_1.wav,1,60b18fbfb6c5d8edfaa5bed0,2021-08-05_21h29.41.681,Agingstudy,2020.2.10,Win32,60,,,,,,,,,,,,
,,,,,,,,2,0,0.3576,0,5,5,4,1,Headphone/t3_1.wav,3,60b18fbfb6c5d8edfaa5bed0,2021-08-05_21h29.41.681,Agingstudy,2020.2.10,Win32,60,,,,,,,,,,,,
,,,,,,,,,,,,,,,,,,60b18fbfb6c5d8edfaa5bed0,2021-08-05_21h29.41.681,Agingstudy,2020.2.10,Win32,60,space,4.6191,0,0,0,0,1,,,,,
,,,,,,,,,,,,,,,,,,60b18fbfb6c5d8edfaa5bed0,2021-08-05_21h29.41.681,Agingstudy,2020.2.10,Win32,60,,,,,,,,10,0,10,0,1
