Welcome0Continue.keys,Welcome0Continue.rt,SoundCheckBegin.keys,SoundCheckBegin.rt,SoundCheckEndKey.keys,SoundCheckEndKey.rt,HeadphoneContinueKey.keys,HeadphoneContinueKey.rt,CheckResp.keys,CheckResp.corr,CheckResp.rt,HeadphoneLoop.thisRepN,HeadphoneLoop.thisTrialN,HeadphoneLoop.thisN,HeadphoneLoop.thisIndex,HeadphoneLoop.ran,File,Correct,participant,date,expName,psychopyVersion,OS,frameRate,RepeatAgainKey.keys,RepeatAgainKey.rt,RepeatAgainLoop.thisRepN,RepeatAgainLoop.thisTrialN,RepeatAgainLoop.thisN,RepeatAgainLoop.thisIndex,RepeatAgainLoop.ran,Headphone_retest.thisRepN,Headphone_retest.thisTrialN,Headphone_retest.thisN,Headphone_retest.thisIndex,Headphone_retest.ran,ContinueKey8.keys,ContinueKey8.rt,MSTWelcomeContKey.keys,MSTWelcomeContKey.rt,Condition,MSTTrainIntroKey.keys,MSTTrainIntroKey.rt,MSTTrainKeys.keys,MSTTrainKeys.corr,MSTTrainKeys.rt,MSTTrainLoop.thisRepN,MSTTrainLoop.thisTrialN,MSTTrainLoop.thisN,MSTTrainLoop.thisIndex,MSTTrainLoop.ran,SoundFile,Type,MSTTestBeginKey.keys,MSTTestBeginKey.rt,MST_resp.keys,MST_resp.corr,MST_resp.rt,MSTPlayLoop.thisRepN,MSTPlayLoop.thisTrialN,MSTPlayLoop.thisN,MSTPlayLoop.thisIndex,MSTPlayLoop.ran,WordCorrect,Correct_type,WordType,MSTLoop.thisRepN,MSTLoop.thisTrialN,MSTLoop.thisN,MSTLoop.thisIndex,MSTLoop.ran,EndAllKey.keys,EndAllKey.rt,FeedbackResp.text
space,32.8783,space,4.1349,space,12.1804,space,16.0988,1,1,1.5836,0,0,0,1,1,Headphone/t1_2.wav,1,60cd45f3a4134f92558cc450,2021-08-02_14h38.28.074,Agingstudy,2020.2.10,Win32,60,,,,,,,,,,,,,,,,,,,,,,,,,,,,,,,,,,,,,,,,,,,,,,,,,,
,,,,,,,,2,0,5.1933,0,1,1,4,1,Headphone/t3_1.wav,3,60cd45f3a4134f92558cc450,2021-08-02_14h38.28.074,Agingstudy,2020.2.10,Win32,60,,,,,,,,,,,,,,,,,,,,,,,,,,,,,,,,,,,,,,,,,,,,,,,,,,
,,,,,,,,1,1,0.7451,0,2,2,0,1,Headphone/t1_1.wav,1,60cd45f3a4134f92558cc450,2021-08-02_14h38.28.074,Agingstudy,2020.2.10,Win32,60,,,,,,,,,,,,,,,,,,,,,,,,,,,,,,,,,,,,,,,,,,,,,,,,,,
,,,,,,,,3,1,0.6969,0,3,3,5,1,Headphone/t3_2.wav,3,60cd45f3a4134f92558cc450,2021-08-02_14h38.28.074,Agingstudy,2020.2.10,Win32,60,,,,,,,,,,,,,,,,,,,,,,,,,,,,,,,,,,,,,,,,,,,,,,,,,,
,,,,,,,,2,1,0.7668,0,4,4,2,1,Headphone/t2_1.wav,2,60cd45f3a4134f92558cc450,2021-08-02_14h38.28.074,Agingstudy,2020.2.10,Win32,60,,,,,,,,,,,,,,,,,,,,,,,,,,,,,,,,,,,,,,,,,,,,,,,,,,
,,,,,,,,1,0,0.6503,0,5,5,3,1,Headphone/t2_2.wav,2,60cd45f3a4134f92558cc450,2021-08-02_14h38.28.074,Agingstudy,2020.2.10,Win32,60,,,,,,,,,,,,,,,,,,,,,,,,,,,,,,,,,,,,,,,,,,,,,,,,,,
,,,,,,,,,,,,,,,,,,60cd45f3a4134f92558cc450,2021-08-02_14h38.28.074,Agingstudy,2020.2.10,Win32,60,space,3.8353,0,0,0,0,1,,,,,,,,,,,,,,,,,,,,,,,,,,,,,,,,,,,,,,,,,,,
,,,,,,,,,,,,,,,,,,60cd45f3a4134f92558cc450,2021-08-02_14h38.28.074,Agingstudy,2020.2.10,Win32,60,,,,,,,,0,0,0,0,1,,,,,,,,,,,,,,,,,,,,,,,,,,,,,,,,,,,,,,
,,,,,,,,3,1,1.0915,0,0,0,5,1,Headphone/t3_2.wav,3,60cd45f3a4134f92558cc450,2021-08-02_14h38.28.074,Agingstudy,2020.2.10,Win32,60,,,,,,,,,,,,,,,,,,,,,,,,,,,,,,,,,,,,,,,,,,,,,,,,,,
,,,,,,,,2,1,1.058,0,1,1,2,1,Headphone/t2_1.wav,2,60cd45f3a4134f92558cc450,2021-08-02_14h38.28.074,Agingstudy,2020.2.10,Win32,60,,,,,,,,,,,,,,,,,,,,,,,,,,,,,,,,,,,,,,,,,,,,,,,,,,
,,,,,,,,3,1,0.7116,0,2,2,4,1,Headphone/t3_1.wav,3,60cd45f3a4134f92558cc450,2021-08-02_14h38.28.074,Agingstudy,2020.2.10,Win32,60,,,,,,,,,,,,,,,,,,,,,,,,,,,,,,,,,,,,,,,,,,,,,,,,,,
,,,,,,,,2,1,1.0213,0,3,3,3,1,Headphone/t2_2.wav,2,60cd45f3a4134f92558cc450,2021-08-02_14h38.28.074,Agingstudy,2020.2.10,Win32,60,,,,,,,,,,,,,,,,,,,,,,,,,,,,,,,,,,,,,,,,,,,,,,,,,,
,,,,,,,,1,1,0.7752,0,4,4,1,1,Headphone/t1_2.wav,1,60cd45f3a4134f92558cc450,2021-08-02_14h38.28.074,Agingstudy,2020.2.10,Win32,60,,,,,,,,,,,,,,,,,,,,,,,,,,,,,,,,,,,,,,,,,,,,,,,,,,
,,,,,,,,1,1,0.7044,0,5,5,0,1,Headphone/t1_1.wav,1,60cd45f3a4134f92558cc450,2021-08-02_14h38.28.074,Agingstudy,2020.2.10,Win32,60,,,,,,,,,,,,,,,,,,,,,,,,,,,,,,,,,,,,,,,,,,,,,,,,,,
,,,,,,,,,,,,,,,,,2,60cd45f3a4134f92558cc450,2021-08-02_14h38.28.074,Agingstudy,2020.2.10,Win32,60,,,,,,,,,,,,,space,13.8659,space,8.7454,1,space,3.8127,2,1,4.1234,0,0,0,0,1,Training/FO_YI_LAY.wav,NEW,,,,,,,,,,,,,,,,,,,,,
,,,,,,,,,,,,,,,,,1,60cd45f3a4134f92558cc450,2021-08-02_14h38.28.074,Agingstudy,2020.2.10,Win32,60,,,,,,,,,,,,,,,,,,,,1,1,2.0535,0,1,1,1,1,Training/FO_YI_LAY.wav,OLD,,,,,,,,,,,,,,,,,,,,,
,,,,,,,,,,,,,,,,,2,60cd45f3a4134f92558cc450,2021-08-02_14h38.28.074,Agingstudy,2020.2.10,Win32,60,,,,,,,,,,,,,,,,,,,,2,1,0.5601,0,2,2,2,1,Training/YO_BU_JAY.wav,NEW,,,,,,,,,,,,,,,,,,,,,
,,,,,,,,,,,,,,,,,2,60cd45f3a4134f92558cc450,2021-08-02_14h38.28.074,Agingstudy,2020.2.10,Win32,60,,,,,,,,,,,,,,,,,,,,1,0,0.3309,0,3,3,3,1,Training/JAY_YO_BU.wav,SIMILAR,,,,,,,,,,,,,,,,,,,,,
,,,,,,,,,,,,,,,,,1,60cd45f3a4134f92558cc450,2021-08-02_14h38.28.074,Agingstudy,2020.2.10,Win32,60,,,,,,,,,,,,,,,,,,,,1,1,1.1572,0,4,4,4,1,Training/FO_YI_LAY.wav,OLD,,,,,,,,,,,,,,,,,,,,,
,,,,,,,,,,,,,,,,TestWords/CHU_LA_PAY.wav,,60cd45f3a4134f92558cc450,2021-08-02_14h38.28.074,Agingstudy,2020.2.10,Win32,60,,,,,,,,,,,,,,,,,D,,,,,,,,,,,,,space,7.3812,2,1,0.7183,0,0,0,0,1,2,NEW,NEW,,,,,,,,
,,,,,,,,,,,,,,,,TestWords/FI_GU_CHA.wav,,60cd45f3a4134f92558cc450,2021-08-02_14h38.28.074,Agingstudy,2020.2.10,Win32,60,,,,,,,,,,,,,,,,,D,,,,,,,,,,,,,,,2,1,0.4499,0,1,1,1,1,2,NEW,NEW,,,,,,,,
,,,,,,,,,,,,,,,,TestWords/RAI_ZO_FU.wav,,60cd45f3a4134f92558cc450,2021-08-02_14h38.28.074,Agingstudy,2020.2.10,Win32,60,,,,,,,,,,,,,,,,,D,,,,,,,,,,,,,,,2,1,0.363,0,2,2,2,1,2,NEW,NEW,,,,,,,,
,,,,,,,,,,,,,,,,TestWords/DAI_RU_CHI.wav,,60cd45f3a4134f92558cc450,2021-08-02_14h38.28.074,Agingstudy,2020.2.10,Win32,60,,,,,,,,,,,,,,,,,D,,,,,,,,,,,,,,,2,1,0.2558,0,3,3,3,1,2,NEW,NEW,,,,,,,,
,,,,,,,,,,,,,,,,TestWords/GA_MU_ZI.wav,,60cd45f3a4134f92558cc450,2021-08-02_14h38.28.074,Agingstudy,2020.2.10,Win32,60,,,,,,,,,,,,,,,,,D,,,,,,,,,,,,,,,2,1,0.1683,0,4,4,4,1,2,NEW,NEW,,,,,,,,
,,,,,,,,,,,,,,,,TestWords/DA_CHU_VAI.wav,,60cd45f3a4134f92558cc450,2021-08-02_14h38.28.074,Agingstudy,2020.2.10,Win32,60,,,,,,,,,,,,,,,,,D,,,,,,,,,,,,,,,1,0,0.4164,0,5,5,5,1,2,NEW,NEW,,,,,,,,
,,,,,,,,,,,,,,,,TestWords/ZO_RAI_FU.wav,,60cd45f3a4134f92558cc450,2021-08-02_14h38.28.074,Agingstudy,2020.2.10,Win32,60,,,,,,,,,,,,,,,,,D,,,,,,,,,,,,,,,2,1,0.2688,0,6,6,6,1,2,NEW,SIMILAR,,,,,,,,
,,,,,,,,,,,,,,,,TestWords/BA_KAY_LI.wav,,60cd45f3a4134f92558cc450,2021-08-02_14h38.28.074,Agingstudy,2020.2.10,Win32,60,,,,,,,,,,,,,,,,,D,,,,,,,,,,,,,,,2,1,0.6615,0,7,7,7,1,2,NEW,NEW,,,,,,,,
,,,,,,,,,,,,,,,,TestWords/VAI_HO_LA.wav,,60cd45f3a4134f92558cc450,2021-08-02_14h38.28.074,Agingstudy,2020.2.10,Win32,60,,,,,,,,,,,,,,,,,D,,,,,,,,,,,,,,,2,1,0.568,0,8,8,8,1,2,NEW,NEW,,,,,,,,
,,,,,,,,,,,,,,,,TestWords/DAI_RU_CHI.wav,,60cd45f3a4134f92558cc450,2021-08-02_14h38.28.074,Agingstudy,2020.2.10,Win32,60,,,,,,,,,,,,,,,,,D,,,,,,,,,,,,,,,1,1,0.3342,0,9,9,9,1,1,OLD,OLD,,,,,,,,
,,,,,,,,,,,,,,,,TestWords/RAY_PA_TI.wav,,60cd45f3a4134f92558cc450,2021-08-02_14h38.28.074,Agingstudy,2020.2.10,Win32,60,,,,,,,,,,,,,,,,,D,,,,,,,,,,,,,,,2,1,0.9307,0,10,10,10,1,2,NEW,NEW,,,,,,,,
,,,,,,,,,,,,,,,,TestWords/NO_WA_BAY.wav,,60cd45f3a4134f92558cc450,2021-08-02_14h38.28.074,Agingstudy,2020.2.10,Win32,60,,,,,,,,,,,,,,,,,D,,,,,,,,,,,,,,,2,1,0.2157,0,11,11,11,1,2,NEW,NEW,,,,,,,,
,,,,,,,,,,,,,,,,TestWords/GA_MU_ZI.wav,,60cd45f3a4134f92558cc450,2021-08-02_14h38.28.074,Agingstudy,2020.2.10,Win32,60,,,,,,,,,,,,,,,,,D,,,,,,,,,,,,,,,1,1,0.8147,0,12,12,12,1,1,OLD,OLD,,,,,,,,
,,,,,,,,,,,,,,,,TestWords/WAI_VU_NA.wav,,60cd45f3a4134f92558cc450,2021-08-02_14h38.28.074,Agingstudy,2020.2.10,Win32,60,,,,,,,,,,,,,,,,,D,,,,,,,,,,,,,,,2,1,0.8656,0,13,13,13,1,2,NEW,NEW,,,,,,,,
,,,,,,,,,,,,,,,,TestWords/KAY_LI_BA.wav,,60cd45f3a4134f92558cc450,2021-08-02_14h38.28.074,Agingstudy,2020.2.10,Win32,60,,,,,,,,,,,,,,,,,D,,,,,,,,,,,,,,,1,0,0.5724,0,14,14,14,1,2,NEW,SIMILAR,,,,,,,,
,,,,,,,,,,,,,,,,TestWords/FU_RAI_ZO.wav,,60cd45f3a4134f92558cc450,2021-08-02_14h38.28.074,Agingstudy,2020.2.10,Win32,60,,,,,,,,,,,,,,,,,D,,,,,,,,,,,,,,,2,1,0.9558,0,15,15,15,1,2,NEW,SIMILAR,,,,,,,,
,,,,,,,,,,,,,,,,TestWords/KAI_LAY_TA.wav,,60cd45f3a4134f92558cc450,2021-08-02_14h38.28.074,Agingstudy,2020.2.10,Win32,60,,,,,,,,,,,,,,,,,D,,,,,,,,,,,,,,,2,1,0.5668,0,16,16,16,1,2,NEW,NEW,,,,,,,,
,,,,,,,,,,,,,,,,TestWords/RAY_PA_TI.wav,,60cd45f3a4134f92558cc450,2021-08-02_14h38.28.074,Agingstudy,2020.2.10,Win32,60,,,,,,,,,,,,,,,,,D,,,,,,,,,,,,,,,1,1,0.5008,0,17,17,17,1,1,OLD,OLD,,,,,,,,
,,,,,,,,,,,,,,,,TestWords/DAI_RU_CHI.wav,,60cd45f3a4134f92558cc450,2021-08-02_14h38.28.074,Agingstudy,2020.2.10,Win32,60,,,,,,,,,,,,,,,,,D,,,,,,,,,,,,,,,1,1,0.3234,0,18,18,18,1,1,OLD,OLD,,,,,,,,
,,,,,,,,,,,,,,,,TestWords/WAI_NA_VU.wav,,60cd45f3a4134f92558cc450,2021-08-02_14h38.28.074,Agingstudy,2020.2.10,Win32,60,,,,,,,,,,,,,,,,,D,,,,,,,,,,,,,,,1,0,0.4353,0,19,19,19,1,2,NEW,SIMILAR,,,,,,,,
,,,,,,,,,,,,,,,,TestWords/GA_MU_ZI.wav,,60cd45f3a4134f92558cc450,2021-08-02_14h38.28.074,Agingstudy,2020.2.10,Win32,60,,,,,,,,,,,,,,,,,D,,,,,,,,,,,,,,,2,0,0.5301,0,20,20,20,1,1,OLD,OLD,,,,,,,,
,,,,,,,,,,,,,,,,TestWords/KAY_BA_LI.wav,,60cd45f3a4134f92558cc450,2021-08-02_14h38.28.074,Agingstudy,2020.2.10,Win32,60,,,,,,,,,,,,,,,,,D,,,,,,,,,,,,,,,1,0,0.4257,0,21,21,21,1,2,NEW,SIMILAR,,,,,,,,
,,,,,,,,,,,,,,,,TestWords/KAI_LAY_TA.wav,,60cd45f3a4134f92558cc450,2021-08-02_14h38.28.074,Agingstudy,2020.2.10,Win32,60,,,,,,,,,,,,,,,,,D,,,,,,,,,,,,,,,2,0,0.8675,0,22,22,22,1,1,OLD,OLD,,,,,,,,
,,,,,,,,,,,,,,,,TestWords/FU_ZO_RAI.wav,,60cd45f3a4134f92558cc450,2021-08-02_14h38.28.074,Agingstudy,2020.2.10,Win32,60,,,,,,,,,,,,,,,,,D,,,,,,,,,,,,,,,2,1,1.1042,0,23,23,23,1,2,NEW,SIMILAR,,,,,,,,
,,,,,,,,,,,,,,,,TestWords/RAY_PA_TI.wav,,60cd45f3a4134f92558cc450,2021-08-02_14h38.28.074,Agingstudy,2020.2.10,Win32,60,,,,,,,,,,,,,,,,,D,,,,,,,,,,,,,,,1,1,0.2595,0,24,24,24,1,1,OLD,OLD,,,,,,,,
,,,,,,,,,,,,,,,,TestWords/DAI_RU_CHI.wav,,60cd45f3a4134f92558cc450,2021-08-02_14h38.28.074,Agingstudy,2020.2.10,Win32,60,,,,,,,,,,,,,,,,,D,,,,,,,,,,,,,,,1,1,0.3649,0,25,25,25,1,1,OLD,OLD,,,,,,,,
,,,,,,,,,,,,,,,,TestWords/VU_NA_WAI.wav,,60cd45f3a4134f92558cc450,2021-08-02_14h38.28.074,Agingstudy,2020.2.10,Win32,60,,,,,,,,,,,,,,,,,D,,,,,,,,,,,,,,,2,1,0.6167,0,26,26,26,1,2,NEW,SIMILAR,,,,,,,,
,,,,,,,,,,,,,,,,TestWords/RAI_FU_ZO.wav,,60cd45f3a4134f92558cc450,2021-08-02_14h38.28.074,Agingstudy,2020.2.10,Win32,60,,,,,,,,,,,,,,,,,D,,,,,,,,,,,,,,,1,0,0.8344,0,27,27,27,1,2,NEW,SIMILAR,,,,,,,,
,,,,,,,,,,,,,,,,TestWords/GA_MU_ZI.wav,,60cd45f3a4134f92558cc450,2021-08-02_14h38.28.074,Agingstudy,2020.2.10,Win32,60,,,,,,,,,,,,,,,,,D,,,,,,,,,,,,,,,1,1,0.2685,0,28,28,28,1,1,OLD,OLD,,,,,,,,
,,,,,,,,,,,,,,,,TestWords/LI_BA_KAY.wav,,60cd45f3a4134f92558cc450,2021-08-02_14h38.28.074,Agingstudy,2020.2.10,Win32,60,,,,,,,,,,,,,,,,,D,,,,,,,,,,,,,,,2,1,0.4168,0,29,29,29,1,2,NEW,SIMILAR,,,,,,,,
,,,,,,,,,,,,,,,,TestWords/KAI_LAY_TA.wav,,60cd45f3a4134f92558cc450,2021-08-02_14h38.28.074,Agingstudy,2020.2.10,Win32,60,,,,,,,,,,,,,,,,,D,,,,,,,,,,,,,,,2,0,0.6873,0,30,30,30,1,1,OLD,OLD,,,,,,,,
,,,,,,,,,,,,,,,,TestWords/RAY_PA_TI.wav,,60cd45f3a4134f92558cc450,2021-08-02_14h38.28.074,Agingstudy,2020.2.10,Win32,60,,,,,,,,,,,,,,,,,D,,,,,,,,,,,,,,,1,1,0.4118,0,31,31,31,1,1,OLD,OLD,,,,,,,,
,,,,,,,,,,,,,,,,TestWords/VU_WAI_NA.wav,,60cd45f3a4134f92558cc450,2021-08-02_14h38.28.074,Agingstudy,2020.2.10,Win32,60,,,,,,,,,,,,,,,,,D,,,,,,,,,,,,,,,2,1,0.9135,0,32,32,32,1,2,NEW,SIMILAR,,,,,,,,
,,,,,,,,,,,,,,,,TestWords/DAI_RU_CHI.wav,,60cd45f3a4134f92558cc450,2021-08-02_14h38.28.074,Agingstudy,2020.2.10,Win32,60,,,,,,,,,,,,,,,,,D,,,,,,,,,,,,,,,1,1,0.2479,0,33,33,33,1,1,OLD,OLD,,,,,,,,
,,,,,,,,,,,,,,,,TestWords/ZO_FU_RAI.wav,,60cd45f3a4134f92558cc450,2021-08-02_14h38.28.074,Agingstudy,2020.2.10,Win32,60,,,,,,,,,,,,,,,,,D,,,,,,,,,,,,,,,1,0,0.3155,0,34,34,34,1,2,NEW,SIMILAR,,,,,,,,
,,,,,,,,,,,,,,,,TestWords/BA_LI_KAY.wav,,60cd45f3a4134f92558cc450,2021-08-02_14h38.28.074,Agingstudy,2020.2.10,Win32,60,,,,,,,,,,,,,,,,,D,,,,,,,,,,,,,,,1,0,0.4011,0,35,35,35,1,2,NEW,SIMILAR,,,,,,,,
,,,,,,,,,,,,,,,,TestWords/KO_SU_FAI.wav,,60cd45f3a4134f92558cc450,2021-08-02_14h38.28.074,Agingstudy,2020.2.10,Win32,60,,,,,,,,,,,,,,,,,D,,,,,,,,,,,,,,,2,1,0.3381,0,36,36,36,1,2,NEW,NEW,,,,,,,,
,,,,,,,,,,,,,,,,TestWords/KAI_LAY_TA.wav,,60cd45f3a4134f92558cc450,2021-08-02_14h38.28.074,Agingstudy,2020.2.10,Win32,60,,,,,,,,,,,,,,,,,D,,,,,,,,,,,,,,,1,1,0.2207,0,37,37,37,1,1,OLD,OLD,,,,,,,,
,,,,,,,,,,,,,,,,TestWords/RAY_PA_TI.wav,,60cd45f3a4134f92558cc450,2021-08-02_14h38.28.074,Agingstudy,2020.2.10,Win32,60,,,,,,,,,,,,,,,,,D,,,,,,,,,,,,,,,1,1,0.3485,0,38,38,38,1,1,OLD,OLD,,,,,,,,
,,,,,,,,,,,,,,,,TestWords/GA_MU_ZI.wav,,60cd45f3a4134f92558cc450,2021-08-02_14h38.28.074,Agingstudy,2020.2.10,Win32,60,,,,,,,,,,,,,,,,,D,,,,,,,,,,,,,,,2,0,0.8003,0,39,39,39,1,1,OLD,OLD,,,,,,,,
,,,,,,,,,,,,,,,,TestWords/NA_VU_WAI.wav,,60cd45f3a4134f92558cc450,2021-08-02_14h38.28.074,Agingstudy,2020.2.10,Win32,60,,,,,,,,,,,,,,,,,D,,,,,,,,,,,,,,,1,0,0.5358,0,40,40,40,1,2,NEW,SIMILAR,,,,,,,,
,,,,,,,,,,,,,,,,TestWords/DAI_RU_CHI.wav,,60cd45f3a4134f92558cc450,2021-08-02_14h38.28.074,Agingstudy,2020.2.10,Win32,60,,,,,,,,,,,,,,,,,D,,,,,,,,,,,,,,,1,1,0.4012,0,41,41,41,1,1,OLD,OLD,,,,,,,,
,,,,,,,,,,,,,,,,TestWords/KO_SU_FAI.wav,,60cd45f3a4134f92558cc450,2021-08-02_14h38.28.074,Agingstudy,2020.2.10,Win32,60,,,,,,,,,,,,,,,,,D,,,,,,,,,,,,,,,2,0,0.2987,0,42,42,42,1,1,OLD,OLD,,,,,,,,
,,,,,,,,,,,,,,,,TestWords/NA_WAI_VU.wav,,60cd45f3a4134f92558cc450,2021-08-02_14h38.28.074,Agingstudy,2020.2.10,Win32,60,,,,,,,,,,,,,,,,,D,,,,,,,,,,,,,,,1,0,0.3324,0,43,43,43,1,2,NEW,SIMILAR,,,,,,,,
,,,,,,,,,,,,,,,,TestWords/KAI_LAY_TA.wav,,60cd45f3a4134f92558cc450,2021-08-02_14h38.28.074,Agingstudy,2020.2.10,Win32,60,,,,,,,,,,,,,,,,,D,,,,,,,,,,,,,,,1,1,0.4214,0,44,44,44,1,1,OLD,OLD,,,,,,,,
,,,,,,,,,,,,,,,,TestWords/SI_VAI_CHU.wav,,60cd45f3a4134f92558cc450,2021-08-02_14h38.28.074,Agingstudy,2020.2.10,Win32,60,,,,,,,,,,,,,,,,,D,,,,,,,,,,,,,,,1,0,0.8173,0,45,45,45,1,2,NEW,NEW,,,,,,,,
,,,,,,,,,,,,,,,,TestWords/RAY_PA_TI.wav,,60cd45f3a4134f92558cc450,2021-08-02_14h38.28.074,Agingstudy,2020.2.10,Win32,60,,,,,,,,,,,,,,,,,D,,,,,,,,,,,,,,,1,1,0.2979,0,46,46,46,1,1,OLD,OLD,,,,,,,,
,,,,,,,,,,,,,,,,TestWords/GA_MU_ZI.wav,,60cd45f3a4134f92558cc450,2021-08-02_14h38.28.074,Agingstudy,2020.2.10,Win32,60,,,,,,,,,,,,,,,,,D,,,,,,,,,,,,,,,1,1,0.5504,0,47,47,47,1,1,OLD,OLD,,,,,,,,
,,,,,,,,,,,,,,,,TestWords/LI_KAY_BA.wav,,60cd45f3a4134f92558cc450,2021-08-02_14h38.28.074,Agingstudy,2020.2.10,Win32,60,,,,,,,,,,,,,,,,,D,,,,,,,,,,,,,,,2,1,0.2672,0,48,48,48,1,2,NEW,SIMILAR,,,,,,,,
,,,,,,,,,,,,,,,,TestWords/KO_SU_FAI.wav,,60cd45f3a4134f92558cc450,2021-08-02_14h38.28.074,Agingstudy,2020.2.10,Win32,60,,,,,,,,,,,,,,,,,D,,,,,,,,,,,,,,,1,1,0.9006,0,49,49,49,1,1,OLD,OLD,,,,,,,,
,,,,,,,,,,,,,,,,TestWords/DAI_RU_CHI.wav,,60cd45f3a4134f92558cc450,2021-08-02_14h38.28.074,Agingstudy,2020.2.10,Win32,60,,,,,,,,,,,,,,,,,D,,,,,,,,,,,,,,,1,1,0.3004,0,50,50,50,1,1,OLD,OLD,,,,,,,,
,,,,,,,,,,,,,,,,TestWords/DAY_PU_MO.wav,,60cd45f3a4134f92558cc450,2021-08-02_14h38.28.074,Agingstudy,2020.2.10,Win32,60,,,,,,,,,,,,,,,,,D,,,,,,,,,,,,,,,2,1,0.3068,0,51,51,51,1,2,NEW,NEW,,,,,,,,
,,,,,,,,,,,,,,,,TestWords/KAI_LAY_TA.wav,,60cd45f3a4134f92558cc450,2021-08-02_14h38.28.074,Agingstudy,2020.2.10,Win32,60,,,,,,,,,,,,,,,,,D,,,,,,,,,,,,,,,1,1,0.55,0,52,52,52,1,1,OLD,OLD,,,,,,,,
,,,,,,,,,,,,,,,,TestWords/LU_HAI_BO.wav,,60cd45f3a4134f92558cc450,2021-08-02_14h38.28.074,Agingstudy,2020.2.10,Win32,60,,,,,,,,,,,,,,,,,D,,,,,,,,,,,,,,,2,1,0.1949,0,53,53,53,1,2,NEW,NEW,,,,,,,,
,,,,,,,,,,,,,,,,TestWords/RAY_PA_TI.wav,,60cd45f3a4134f92558cc450,2021-08-02_14h38.28.074,Agingstudy,2020.2.10,Win32,60,,,,,,,,,,,,,,,,,D,,,,,,,,,,,,,,,1,1,0.2007,0,54,54,54,1,1,OLD,OLD,,,,,,,,
,,,,,,,,,,,,,,,,TestWords/GA_MU_ZI.wav,,60cd45f3a4134f92558cc450,2021-08-02_14h38.28.074,Agingstudy,2020.2.10,Win32,60,,,,,,,,,,,,,,,,,D,,,,,,,,,,,,,,,2,0,0.3622,0,55,55,55,1,1,OLD,OLD,,,,,,,,
,,,,,,,,,,,,,,,,TestWords/KO_SU_FAI.wav,,60cd45f3a4134f92558cc450,2021-08-02_14h38.28.074,Agingstudy,2020.2.10,Win32,60,,,,,,,,,,,,,,,,,D,,,,,,,,,,,,,,,1,1,0.7367,0,56,56,56,1,1,OLD,OLD,,,,,,,,
,,,,,,,,,,,,,,,,TestWords/TAI_SA_GI.wav,,60cd45f3a4134f92558cc450,2021-08-02_14h38.28.074,Agingstudy,2020.2.10,Win32,60,,,,,,,,,,,,,,,,,D,,,,,,,,,,,,,,,2,1,0.76,0,57,57,57,1,2,NEW,NEW,,,,,,,,
,,,,,,,,,,,,,,,,TestWords/DAY_MO_PU.wav,,60cd45f3a4134f92558cc450,2021-08-02_14h38.28.074,Agingstudy,2020.2.10,Win32,60,,,,,,,,,,,,,,,,,D,,,,,,,,,,,,,,,2,1,0.8535,0,58,58,58,1,2,NEW,SIMILAR,,,,,,,,
,,,,,,,,,,,,,,,,TestWords/DAI_RU_CHI.wav,,60cd45f3a4134f92558cc450,2021-08-02_14h38.28.074,Agingstudy,2020.2.10,Win32,60,,,,,,,,,,,,,,,,,D,,,,,,,,,,,,,,,1,1,0.2311,0,59,59,59,1,1,OLD,OLD,,,,,,,,
,,,,,,,,,,,,,,,,TestWords/KAI_LAY_TA.wav,,60cd45f3a4134f92558cc450,2021-08-02_14h38.28.074,Agingstudy,2020.2.10,Win32,60,,,,,,,,,,,,,,,,,D,,,,,,,,,,,,,,,1,1,0.4181,0,60,60,60,1,1,OLD,OLD,,,,,,,,
,,,,,,,,,,,,,,,,TestWords/LA_ZAY_CHAI.wav,,60cd45f3a4134f92558cc450,2021-08-02_14h38.28.074,Agingstudy,2020.2.10,Win32,60,,,,,,,,,,,,,,,,,D,,,,,,,,,,,,,,,2,1,0.3063,0,61,61,61,1,2,NEW,NEW,,,,,,,,
,,,,,,,,,,,,,,,,TestWords/RAY_PA_TI.wav,,60cd45f3a4134f92558cc450,2021-08-02_14h38.28.074,Agingstudy,2020.2.10,Win32,60,,,,,,,,,,,,,,,,,D,,,,,,,,,,,,,,,1,1,0.2247,0,62,62,62,1,1,OLD,OLD,,,,,,,,
,,,,,,,,,,,,,,,,TestWords/KO_SU_FAI.wav,,60cd45f3a4134f92558cc450,2021-08-02_14h38.28.074,Agingstudy,2020.2.10,Win32,60,,,,,,,,,,,,,,,,,D,,,,,,,,,,,,,,,1,1,0.371,0,63,63,63,1,1,OLD,OLD,,,,,,,,
,,,,,,,,,,,,,,,,TestWords/GA_MU_ZI.wav,,60cd45f3a4134f92558cc450,2021-08-02_14h38.28.074,Agingstudy,2020.2.10,Win32,60,,,,,,,,,,,,,,,,,D,,,,,,,,,,,,,,,1,1,0.385,0,64,64,64,1,1,OLD,OLD,,,,,,,,
,,,,,,,,,,,,,,,,TestWords/GI_TAI_SA.wav,,60cd45f3a4134f92558cc450,2021-08-02_14h38.28.074,Agingstudy,2020.2.10,Win32,60,,,,,,,,,,,,,,,,,D,,,,,,,,,,,,,,,2,1,0.2192,0,65,65,65,1,2,NEW,SIMILAR,,,,,,,,
,,,,,,,,,,,,,,,,TestWords/MO_DAY_PU.wav,,60cd45f3a4134f92558cc450,2021-08-02_14h38.28.074,Agingstudy,2020.2.10,Win32,60,,,,,,,,,,,,,,,,,D,,,,,,,,,,,,,,,2,1,0.2203,0,66,66,66,1,2,NEW,SIMILAR,,,,,,,,
,,,,,,,,,,,,,,,,TestWords/KAI_LAY_TA.wav,,60cd45f3a4134f92558cc450,2021-08-02_14h38.28.074,Agingstudy,2020.2.10,Win32,60,,,,,,,,,,,,,,,,,D,,,,,,,,,,,,,,,1,1,0.2006,0,67,67,67,1,1,OLD,OLD,,,,,,,,
,,,,,,,,,,,,,,,,TestWords/KO_SU_FAI.wav,,60cd45f3a4134f92558cc450,2021-08-02_14h38.28.074,Agingstudy,2020.2.10,Win32,60,,,,,,,,,,,,,,,,,D,,,,,,,,,,,,,,,1,1,0.336,0,68,68,68,1,1,OLD,OLD,,,,,,,,
,,,,,,,,,,,,,,,,TestWords/RAY_PA_TI.wav,,60cd45f3a4134f92558cc450,2021-08-02_14h38.28.074,Agingstudy,2020.2.10,Win32,60,,,,,,,,,,,,,,,,,D,,,,,,,,,,,,,,,1,1,0.1035,0,69,69,69,1,1,OLD,OLD,,,,,,,,
,,,,,,,,,,,,,,,,TestWords/NU_CHAY_SO.wav,,60cd45f3a4134f92558cc450,2021-08-02_14h38.28.074,Agingstudy,2020.2.10,Win32,60,,,,,,,,,,,,,,,,,D,,,,,,,,,,,,,,,2,1,0.3168,0,70,70,70,1,2,NEW,NEW,,,,,,,,
,,,,,,,,,,,,,,,,TestWords/GA_MU_ZI.wav,,60cd45f3a4134f92558cc450,2021-08-02_14h38.28.074,Agingstudy,2020.2.10,Win32,60,,,,,,,,,,,,,,,,,D,,,,,,,,,,,,,,,1,1,0.2404,0,71,71,71,1,1,OLD,OLD,,,,,,,,
,,,,,,,,,,,,,,,,TestWords/DAI_RU_CHI.wav,,60cd45f3a4134f92558cc450,2021-08-02_14h38.28.074,Agingstudy,2020.2.10,Win32,60,,,,,,,,,,,,,,,,,D,,,,,,,,,,,,,,,1,1,0.2853,0,72,72,72,1,1,OLD,OLD,,,,,,,,
,,,,,,,,,,,,,,,,TestWords/SA_TAI_GI.wav,,60cd45f3a4134f92558cc450,2021-08-02_14h38.28.074,Agingstudy,2020.2.10,Win32,60,,,,,,,,,,,,,,,,,D,,,,,,,,,,,,,,,1,0,0.5832,0,73,73,73,1,2,NEW,SIMILAR,,,,,,,,
,,,,,,,,,,,,,,,,TestWords/PU_DAY_MO.wav,,60cd45f3a4134f92558cc450,2021-08-02_14h38.28.074,Agingstudy,2020.2.10,Win32,60,,,,,,,,,,,,,,,,,D,,,,,,,,,,,,,,,1,0,0.2146,0,74,74,74,1,2,NEW,SIMILAR,,,,,,,,
,,,,,,,,,,,,,,,,TestWords/KO_SU_FAI.wav,,60cd45f3a4134f92558cc450,2021-08-02_14h38.28.074,Agingstudy,2020.2.10,Win32,60,,,,,,,,,,,,,,,,,D,,,,,,,,,,,,,,,1,1,0.3503,0,75,75,75,1,1,OLD,OLD,,,,,,,,
,,,,,,,,,,,,,,,,TestWords/KAI_LAY_TA.wav,,60cd45f3a4134f92558cc450,2021-08-02_14h38.28.074,Agingstudy,2020.2.10,Win32,60,,,,,,,,,,,,,,,,,D,,,,,,,,,,,,,,,1,1,0.2869,0,76,76,76,1,1,OLD,OLD,,,,,,,,
,,,,,,,,,,,,,,,,TestWords/HA_SI_JAI.wav,,60cd45f3a4134f92558cc450,2021-08-02_14h38.28.074,Agingstudy,2020.2.10,Win32,60,,,,,,,,,,,,,,,,,D,,,,,,,,,,,,,,,2,1,0.4505,0,77,77,77,1,2,NEW,NEW,,,,,,,,
,,,,,,,,,,,,,,,,TestWords/RAY_PA_TI.wav,,60cd45f3a4134f92558cc450,2021-08-02_14h38.28.074,Agingstudy,2020.2.10,Win32,60,,,,,,,,,,,,,,,,,D,,,,,,,,,,,,,,,1,1,0.1214,0,78,78,78,1,1,OLD,OLD,,,,,,,,
,,,,,,,,,,,,,,,,TestWords/DAI_RU_CHI.wav,,60cd45f3a4134f92558cc450,2021-08-02_14h38.28.074,Agingstudy,2020.2.10,Win32,60,,,,,,,,,,,,,,,,,D,,,,,,,,,,,,,,,1,1,0.2166,0,79,79,79,1,1,OLD,OLD,,,,,,,,
,,,,,,,,,,,,,,,,TestWords/GA_MU_ZI.wav,,60cd45f3a4134f92558cc450,2021-08-02_14h38.28.074,Agingstudy,2020.2.10,Win32,60,,,,,,,,,,,,,,,,,D,,,,,,,,,,,,,,,1,1,0.9404,0,80,80,80,1,1,OLD,OLD,,,,,,,,
,,,,,,,,,,,,,,,,TestWords/SA_GI_TAI.wav,,60cd45f3a4134f92558cc450,2021-08-02_14h38.28.074,Agingstudy,2020.2.10,Win32,60,,,,,,,,,,,,,,,,,D,,,,,,,,,,,,,,,2,1,0.3988,0,81,81,81,1,2,NEW,SIMILAR,,,,,,,,
,,,,,,,,,,,,,,,,TestWords/KO_SU_FAI.wav,,60cd45f3a4134f92558cc450,2021-08-02_14h38.28.074,Agingstudy,2020.2.10,Win32,60,,,,,,,,,,,,,,,,,D,,,,,,,,,,,,,,,1,1,0.2827,0,82,82,82,1,1,OLD,OLD,,,,,,,,
,,,,,,,,,,,,,,,,TestWords/KAI_LAY_TA.wav,,60cd45f3a4134f92558cc450,2021-08-02_14h38.28.074,Agingstudy,2020.2.10,Win32,60,,,,,,,,,,,,,,,,,D,,,,,,,,,,,,,,,1,1,0.1715,0,83,83,83,1,1,OLD,OLD,,,,,,,,
,,,,,,,,,,,,,,,,TestWords/PU_MO_DAY.wav,,60cd45f3a4134f92558cc450,2021-08-02_14h38.28.074,Agingstudy,2020.2.10,Win32,60,,,,,,,,,,,,,,,,,D,,,,,,,,,,,,,,,2,1,0.2552,0,84,84,84,1,2,NEW,SIMILAR,,,,,,,,
,,,,,,,,,,,,,,,,TestWords/RAY_PA_TI.wav,,60cd45f3a4134f92558cc450,2021-08-02_14h38.28.074,Agingstudy,2020.2.10,Win32,60,,,,,,,,,,,,,,,,,D,,,,,,,,,,,,,,,1,1,0.1023,0,85,85,85,1,1,OLD,OLD,,,,,,,,
,,,,,,,,,,,,,,,,TestWords/HI_NAY_VA.wav,,60cd45f3a4134f92558cc450,2021-08-02_14h38.28.074,Agingstudy,2020.2.10,Win32,60,,,,,,,,,,,,,,,,,D,,,,,,,,,,,,,,,2,1,0.3049,0,86,86,86,1,2,NEW,NEW,,,,,,,,
,,,,,,,,,,,,,,,,TestWords/DAI_RU_CHI.wav,,60cd45f3a4134f92558cc450,2021-08-02_14h38.28.074,Agingstudy,2020.2.10,Win32,60,,,,,,,,,,,,,,,,,D,,,,,,,,,,,,,,,1,1,0.4835,0,87,87,87,1,1,OLD,OLD,,,,,,,,
,,,,,,,,,,,,,,,,TestWords/TAI_GI_SA.wav,,60cd45f3a4134f92558cc450,2021-08-02_14h38.28.074,Agingstudy,2020.2.10,Win32,60,,,,,,,,,,,,,,,,,D,,,,,,,,,,,,,,,1,0,0.4663,0,88,88,88,1,2,NEW,SIMILAR,,,,,,,,
,,,,,,,,,,,,,,,,TestWords/KO_SU_FAI.wav,,60cd45f3a4134f92558cc450,2021-08-02_14h38.28.074,Agingstudy,2020.2.10,Win32,60,,,,,,,,,,,,,,,,,D,,,,,,,,,,,,,,,1,1,0.4294,0,89,89,89,1,1,OLD,OLD,,,,,,,,
,,,,,,,,,,,,,,,,TestWords/GA_MU_ZI.wav,,60cd45f3a4134f92558cc450,2021-08-02_14h38.28.074,Agingstudy,2020.2.10,Win32,60,,,,,,,,,,,,,,,,,D,,,,,,,,,,,,,,,2,0,0.2039,0,90,90,90,1,1,OLD,OLD,,,,,,,,
,,,,,,,,,,,,,,,,TestWords/PAI_LU_WA.wav,,60cd45f3a4134f92558cc450,2021-08-02_14h38.28.074,Agingstudy,2020.2.10,Win32,60,,,,,,,,,,,,,,,,,D,,,,,,,,,,,,,,,2,1,0.5154,0,91,91,91,1,2,NEW,NEW,,,,,,,,
,,,,,,,,,,,,,,,,TestWords/KAI_LAY_TA.wav,,60cd45f3a4134f92558cc450,2021-08-02_14h38.28.074,Agingstudy,2020.2.10,Win32,60,,,,,,,,,,,,,,,,,D,,,,,,,,,,,,,,,1,1,1.1051,0,92,92,92,1,1,OLD,OLD,,,,,,,,
,,,,,,,,,,,,,,,,TestWords/MO_PU_DAY.wav,,60cd45f3a4134f92558cc450,2021-08-02_14h38.28.074,Agingstudy,2020.2.10,Win32,60,,,,,,,,,,,,,,,,,D,,,,,,,,,,,,,,,2,1,0.1988,0,93,93,93,1,2,NEW,SIMILAR,,,,,,,,
,,,,,,,,,,,,,,,,TestWords/KO_SU_FAI.wav,,60cd45f3a4134f92558cc450,2021-08-02_14h38.28.074,Agingstudy,2020.2.10,Win32,60,,,,,,,,,,,,,,,,,D,,,,,,,,,,,,,,,1,1,0.5418,0,94,94,94,1,1,OLD,OLD,,,,,,,,
,,,,,,,,,,,,,,,,TestWords/GI_SA_TAI.wav,,60cd45f3a4134f92558cc450,2021-08-02_14h38.28.074,Agingstudy,2020.2.10,Win32,60,,,,,,,,,,,,,,,,,D,,,,,,,,,,,,,,,2,1,0.3771,0,95,95,95,1,2,NEW,SIMILAR,,,,,,,,
,,,,,,,,,,,,,,,,TestWords/HO_NAY_VA.wav,,60cd45f3a4134f92558cc450,2021-08-02_14h38.28.074,Agingstudy,2020.2.10,Win32,60,,,,,,,,,,,,,,,,,D,,,,,,,,,,,,,,,2,1,0.2554,0,96,96,96,1,2,NEW,NEW,,,,,,,,
,,,,,,,,,,,,,,,,TestWords/GU_CHAI_PI.wav,,60cd45f3a4134f92558cc450,2021-08-02_14h38.28.074,Agingstudy,2020.2.10,Win32,60,,,,,,,,,,,,,,,,,D,,,,,,,,,,,,,,,2,1,0.3276,0,97,97,97,1,2,NEW,NEW,,,,,,,,
,,,,,,,,,,,,,,,,TestWords/KO_SU_FAI.wav,,60cd45f3a4134f92558cc450,2021-08-02_14h38.28.074,Agingstudy,2020.2.10,Win32,60,,,,,,,,,,,,,,,,,D,,,,,,,,,,,,,,,1,1,0.2846,0,98,98,98,1,1,OLD,OLD,,,,,,,,
,,,,,,,,,,,,,,,,TestWords/WAI_RO_JU.wav,,60cd45f3a4134f92558cc450,2021-08-02_14h38.28.074,Agingstudy,2020.2.10,Win32,60,,,,,,,,,,,,,,,,,D,,,,,,,,,,,,,,,2,1,0.3056,0,99,99,99,1,2,NEW,NEW,,,,,,,,
,,,,,,,,,,,,,,,,,,60cd45f3a4134f92558cc450,2021-08-02_14h38.28.074,Agingstudy,2020.2.10,Win32,60,,,,,,,,,,,,,,,,,,,,,,,,,,,,,,,,,,,,,,,,,,,0,0,0,0,1,,,
,,,,,,,,,,,,,,,,,,60cd45f3a4134f92558cc450,2021-08-02_14h38.28.074,Agingstudy,2020.2.10,Win32,60,,,,,,,,,,,,,,,,,,,,,,,,,,,,,,,,,,,,,,,,,,,,,,,,return,10.9667,
