Welcome0Continue.keys,Welcome0Continue.rt,SoundCheckBegin.keys,SoundCheckBegin.rt,SoundCheckEndKey.keys,SoundCheckEndKey.rt,HeadphoneContinueKey.keys,HeadphoneContinueKey.rt,CheckResp.keys,CheckResp.corr,CheckResp.rt,HeadphoneLoop.thisRepN,HeadphoneLoop.thisTrialN,HeadphoneLoop.thisN,HeadphoneLoop.thisIndex,HeadphoneLoop.ran,File,Correct,participant,date,expName,psychopyVersion,OS,frameRate,ContinueKey8.keys,ContinueKey8.rt,MSTWelcomeContKey.keys,MSTWelcomeContKey.rt,Condition,MSTTrainIntroKey.keys,MSTTrainIntroKey.rt,MSTTrainKeys.keys,MSTTrainKeys.corr,MSTTrainKeys.rt,MSTTrainLoop.thisRepN,MSTTrainLoop.thisTrialN,MSTTrainLoop.thisN,MSTTrainLoop.thisIndex,MSTTrainLoop.ran,SoundFile,Type,MSTTestBeginKey.keys,MSTTestBeginKey.rt,MST_resp.keys,MST_resp.corr,MST_resp.rt,MSTPlayLoop.thisRepN,MSTPlayLoop.thisTrialN,MSTPlayLoop.thisN,MSTPlayLoop.thisIndex,MSTPlayLoop.ran,WordCorrect,Correct_type,WordType,MSTLoop.thisRepN,MSTLoop.thisTrialN,MSTLoop.thisN,MSTLoop.thisIndex,MSTLoop.ran,EndAllKey.keys,EndAllKey.rt,FeedbackResp.text
space,2.0357,space,1.5318,space,26.6665,space,7.5225,3,1,6.2404,0,0,0,4,1,Headphone/t3_1.wav,3,60ce6af707bcd42cbc885210,2021-08-01_22h47.48.508,Agingstudy,2020.2.10,Win32,60,,,,,,,,,,,,,,,,,,,,,,,,,,,,,,,,,,,,,,
,,,,,,,,3,1,0.9419,0,1,1,5,1,Headphone/t3_2.wav,3,60ce6af707bcd42cbc885210,2021-08-01_22h47.48.508,Agingstudy,2020.2.10,Win32,60,,,,,,,,,,,,,,,,,,,,,,,,,,,,,,,,,,,,,,
,,,,,,,,1,1,0.6388,0,2,2,1,1,Headphone/t1_2.wav,1,60ce6af707bcd42cbc885210,2021-08-01_22h47.48.508,Agingstudy,2020.2.10,Win32,60,,,,,,,,,,,,,,,,,,,,,,,,,,,,,,,,,,,,,,
,,,,,,,,2,1,0.5531,0,3,3,2,1,Headphone/t2_1.wav,2,60ce6af707bcd42cbc885210,2021-08-01_22h47.48.508,Agingstudy,2020.2.10,Win32,60,,,,,,,,,,,,,,,,,,,,,,,,,,,,,,,,,,,,,,
,,,,,,,,1,1,0.287,0,4,4,0,1,Headphone/t1_1.wav,1,60ce6af707bcd42cbc885210,2021-08-01_22h47.48.508,Agingstudy,2020.2.10,Win32,60,,,,,,,,,,,,,,,,,,,,,,,,,,,,,,,,,,,,,,
,,,,,,,,2,1,0.2365,0,5,5,3,1,Headphone/t2_2.wav,2,60ce6af707bcd42cbc885210,2021-08-01_22h47.48.508,Agingstudy,2020.2.10,Win32,60,,,,,,,,,,,,,,,,,,,,,,,,,,,,,,,,,,,,,,
,,,,,,,,,,,,,,,,,2,60ce6af707bcd42cbc885210,2021-08-01_22h47.48.508,Agingstudy,2020.2.10,Win32,60,space,12.8714,space,7.7291,1,space,4.738,2,1,5.8762,0,0,0,0,1,Training/FO_YI_LAY.wav,NEW,,,,,,,,,,,,,,,,,,,,,
,,,,,,,,,,,,,,,,,1,60ce6af707bcd42cbc885210,2021-08-01_22h47.48.508,Agingstudy,2020.2.10,Win32,60,,,,,,,,1,1,2.696,0,1,1,1,1,Training/FO_YI_LAY.wav,OLD,,,,,,,,,,,,,,,,,,,,,
,,,,,,,,,,,,,,,,,2,60ce6af707bcd42cbc885210,2021-08-01_22h47.48.508,Agingstudy,2020.2.10,Win32,60,,,,,,,,2,1,3.2963,0,2,2,2,1,Training/YO_BU_JAY.wav,NEW,,,,,,,,,,,,,,,,,,,,,
,,,,,,,,,,,,,,,,,2,60ce6af707bcd42cbc885210,2021-08-01_22h47.48.508,Agingstudy,2020.2.10,Win32,60,,,,,,,,2,1,6.8224,0,3,3,3,1,Training/JAY_YO_BU.wav,SIMILAR,,,,,,,,,,,,,,,,,,,,,
,,,,,,,,,,,,,,,,,1,60ce6af707bcd42cbc885210,2021-08-01_22h47.48.508,Agingstudy,2020.2.10,Win32,60,,,,,,,,1,1,2.1693,0,4,4,4,1,Training/FO_YI_LAY.wav,OLD,,,,,,,,,,,,,,,,,,,,,
,,,,,,,,,,,,,,,,TestWords/HA_SI_JAI.wav,,60ce6af707bcd42cbc885210,2021-08-01_22h47.48.508,Agingstudy,2020.2.10,Win32,60,,,,,C,,,,,,,,,,,,,space,7.5346,2,1,3.0485,0,0,0,0,1,2,NEW,NEW,,,,,,,,
,,,,,,,,,,,,,,,,TestWords/NO_WA_BAY.wav,,60ce6af707bcd42cbc885210,2021-08-01_22h47.48.508,Agingstudy,2020.2.10,Win32,60,,,,,C,,,,,,,,,,,,,,,2,1,2.5043,0,1,1,1,1,2,NEW,NEW,,,,,,,,
,,,,,,,,,,,,,,,,TestWords/KO_SU_FAI.wav,,60ce6af707bcd42cbc885210,2021-08-01_22h47.48.508,Agingstudy,2020.2.10,Win32,60,,,,,C,,,,,,,,,,,,,,,2,1,2.0267,0,2,2,2,1,2,NEW,NEW,,,,,,,,
,,,,,,,,,,,,,,,,TestWords/TAI_SA_GI.wav,,60ce6af707bcd42cbc885210,2021-08-01_22h47.48.508,Agingstudy,2020.2.10,Win32,60,,,,,C,,,,,,,,,,,,,,,2,1,2.4496,0,3,3,3,1,2,NEW,NEW,,,,,,,,
,,,,,,,,,,,,,,,,TestWords/HO_NAY_VA.wav,,60ce6af707bcd42cbc885210,2021-08-01_22h47.48.508,Agingstudy,2020.2.10,Win32,60,,,,,C,,,,,,,,,,,,,,,2,1,5.1334,0,4,4,4,1,2,NEW,NEW,,,,,,,,
,,,,,,,,,,,,,,,,TestWords/KAI_LAY_TA.wav,,60ce6af707bcd42cbc885210,2021-08-01_22h47.48.508,Agingstudy,2020.2.10,Win32,60,,,,,C,,,,,,,,,,,,,,,2,1,4.0807,0,5,5,5,1,2,NEW,NEW,,,,,,,,
,,,,,,,,,,,,,,,,TestWords/FI_GU_CHA.wav,,60ce6af707bcd42cbc885210,2021-08-01_22h47.48.508,Agingstudy,2020.2.10,Win32,60,,,,,C,,,,,,,,,,,,,,,2,1,1.2949,0,6,6,6,1,2,NEW,NEW,,,,,,,,
,,,,,,,,,,,,,,,,TestWords/GI_SA_TAI.wav,,60ce6af707bcd42cbc885210,2021-08-01_22h47.48.508,Agingstudy,2020.2.10,Win32,60,,,,,C,,,,,,,,,,,,,,,2,1,1.3283,0,7,7,7,1,2,NEW,SIMILAR,,,,,,,,
,,,,,,,,,,,,,,,,TestWords/LU_HAI_BO.wav,,60ce6af707bcd42cbc885210,2021-08-01_22h47.48.508,Agingstudy,2020.2.10,Win32,60,,,,,C,,,,,,,,,,,,,,,2,1,0.7063,0,8,8,8,1,2,NEW,NEW,,,,,,,,
,,,,,,,,,,,,,,,,TestWords/KO_SU_FAI.wav,,60ce6af707bcd42cbc885210,2021-08-01_22h47.48.508,Agingstudy,2020.2.10,Win32,60,,,,,C,,,,,,,,,,,,,,,2,0,0.8061,0,9,9,9,1,1,OLD,OLD,,,,,,,,
,,,,,,,,,,,,,,,,TestWords/DAI_RU_CHI.wav,,60ce6af707bcd42cbc885210,2021-08-01_22h47.48.508,Agingstudy,2020.2.10,Win32,60,,,,,C,,,,,,,,,,,,,,,2,1,0.9907,0,10,10,10,1,2,NEW,NEW,,,,,,,,
,,,,,,,,,,,,,,,,TestWords/CHU_LA_PAY.wav,,60ce6af707bcd42cbc885210,2021-08-01_22h47.48.508,Agingstudy,2020.2.10,Win32,60,,,,,C,,,,,,,,,,,,,,,2,1,1.7986,0,11,11,11,1,2,NEW,NEW,,,,,,,,
,,,,,,,,,,,,,,,,TestWords/KAI_LAY_TA.wav,,60ce6af707bcd42cbc885210,2021-08-01_22h47.48.508,Agingstudy,2020.2.10,Win32,60,,,,,C,,,,,,,,,,,,,,,1,1,0.9836,0,12,12,12,1,1,OLD,OLD,,,,,,,,
,,,,,,,,,,,,,,,,TestWords/GI_TAI_SA.wav,,60ce6af707bcd42cbc885210,2021-08-01_22h47.48.508,Agingstudy,2020.2.10,Win32,60,,,,,C,,,,,,,,,,,,,,,2,1,1.5423,0,13,13,13,1,2,NEW,SIMILAR,,,,,,,,
,,,,,,,,,,,,,,,,TestWords/DAY_PU_MO.wav,,60ce6af707bcd42cbc885210,2021-08-01_22h47.48.508,Agingstudy,2020.2.10,Win32,60,,,,,C,,,,,,,,,,,,,,,2,1,4.1969,0,14,14,14,1,2,NEW,NEW,,,,,,,,
,,,,,,,,,,,,,,,,TestWords/KO_SU_FAI.wav,,60ce6af707bcd42cbc885210,2021-08-01_22h47.48.508,Agingstudy,2020.2.10,Win32,60,,,,,C,,,,,,,,,,,,,,,2,0,2.9829,0,15,15,15,1,1,OLD,OLD,,,,,,,,
,,,,,,,,,,,,,,,,TestWords/SA_TAI_GI.wav,,60ce6af707bcd42cbc885210,2021-08-01_22h47.48.508,Agingstudy,2020.2.10,Win32,60,,,,,C,,,,,,,,,,,,,,,1,0,1.8027,0,16,16,16,1,2,NEW,SIMILAR,,,,,,,,
,,,,,,,,,,,,,,,,TestWords/RAY_PA_TI.wav,,60ce6af707bcd42cbc885210,2021-08-01_22h47.48.508,Agingstudy,2020.2.10,Win32,60,,,,,C,,,,,,,,,,,,,,,2,1,0.7884,0,17,17,17,1,2,NEW,NEW,,,,,,,,
,,,,,,,,,,,,,,,,TestWords/KAI_LAY_TA.wav,,60ce6af707bcd42cbc885210,2021-08-01_22h47.48.508,Agingstudy,2020.2.10,Win32,60,,,,,C,,,,,,,,,,,,,,,1,1,1.2991,0,18,18,18,1,1,OLD,OLD,,,,,,,,
,,,,,,,,,,,,,,,,TestWords/DAY_MO_PU.wav,,60ce6af707bcd42cbc885210,2021-08-01_22h47.48.508,Agingstudy,2020.2.10,Win32,60,,,,,C,,,,,,,,,,,,,,,2,1,4.266,0,19,19,19,1,2,NEW,SIMILAR,,,,,,,,
,,,,,,,,,,,,,,,,TestWords/DAI_RU_CHI.wav,,60ce6af707bcd42cbc885210,2021-08-01_22h47.48.508,Agingstudy,2020.2.10,Win32,60,,,,,C,,,,,,,,,,,,,,,2,0,2.6067,0,20,20,20,1,1,OLD,OLD,,,,,,,,
,,,,,,,,,,,,,,,,TestWords/SA_GI_TAI.wav,,60ce6af707bcd42cbc885210,2021-08-01_22h47.48.508,Agingstudy,2020.2.10,Win32,60,,,,,C,,,,,,,,,,,,,,,2,1,2.765,0,21,21,21,1,2,NEW,SIMILAR,,,,,,,,
,,,,,,,,,,,,,,,,TestWords/KO_SU_FAI.wav,,60ce6af707bcd42cbc885210,2021-08-01_22h47.48.508,Agingstudy,2020.2.10,Win32,60,,,,,C,,,,,,,,,,,,,,,2,0,0.7837,0,22,22,22,1,1,OLD,OLD,,,,,,,,
,,,,,,,,,,,,,,,,TestWords/KAI_LAY_TA.wav,,60ce6af707bcd42cbc885210,2021-08-01_22h47.48.508,Agingstudy,2020.2.10,Win32,60,,,,,C,,,,,,,,,,,,,,,1,1,0.8521,0,23,23,23,1,1,OLD,OLD,,,,,,,,
,,,,,,,,,,,,,,,,TestWords/RAY_PA_TI.wav,,60ce6af707bcd42cbc885210,2021-08-01_22h47.48.508,Agingstudy,2020.2.10,Win32,60,,,,,C,,,,,,,,,,,,,,,2,0,1.1384,0,24,24,24,1,1,OLD,OLD,,,,,,,,
,,,,,,,,,,,,,,,,TestWords/MO_DAY_PU.wav,,60ce6af707bcd42cbc885210,2021-08-01_22h47.48.508,Agingstudy,2020.2.10,Win32,60,,,,,C,,,,,,,,,,,,,,,1,0,2.8231,0,25,25,25,1,2,NEW,SIMILAR,,,,,,,,
,,,,,,,,,,,,,,,,TestWords/DAI_RU_CHI.wav,,60ce6af707bcd42cbc885210,2021-08-01_22h47.48.508,Agingstudy,2020.2.10,Win32,60,,,,,C,,,,,,,,,,,,,,,1,1,0.8423,0,26,26,26,1,1,OLD,OLD,,,,,,,,
,,,,,,,,,,,,,,,,TestWords/TAI_GI_SA.wav,,60ce6af707bcd42cbc885210,2021-08-01_22h47.48.508,Agingstudy,2020.2.10,Win32,60,,,,,C,,,,,,,,,,,,,,,2,1,1.2665,0,27,27,27,1,2,NEW,SIMILAR,,,,,,,,
,,,,,,,,,,,,,,,,TestWords/GA_MU_ZI.wav,,60ce6af707bcd42cbc885210,2021-08-01_22h47.48.508,Agingstudy,2020.2.10,Win32,60,,,,,C,,,,,,,,,,,,,,,2,1,2.9084,0,28,28,28,1,2,NEW,NEW,,,,,,,,
,,,,,,,,,,,,,,,,TestWords/BA_KAY_LI.wav,,60ce6af707bcd42cbc885210,2021-08-01_22h47.48.508,Agingstudy,2020.2.10,Win32,60,,,,,C,,,,,,,,,,,,,,,2,1,0.806,0,29,29,29,1,2,NEW,NEW,,,,,,,,
,,,,,,,,,,,,,,,,TestWords/RAY_PA_TI.wav,,60ce6af707bcd42cbc885210,2021-08-01_22h47.48.508,Agingstudy,2020.2.10,Win32,60,,,,,C,,,,,,,,,,,,,,,1,1,1.3039,0,30,30,30,1,1,OLD,OLD,,,,,,,,
,,,,,,,,,,,,,,,,TestWords/KO_SU_FAI.wav,,60ce6af707bcd42cbc885210,2021-08-01_22h47.48.508,Agingstudy,2020.2.10,Win32,60,,,,,C,,,,,,,,,,,,,,,2,0,0.2882,0,31,31,31,1,1,OLD,OLD,,,,,,,,
,,,,,,,,,,,,,,,,TestWords/PU_DAY_MO.wav,,60ce6af707bcd42cbc885210,2021-08-01_22h47.48.508,Agingstudy,2020.2.10,Win32,60,,,,,C,,,,,,,,,,,,,,,1,0,2.0827,0,32,32,32,1,2,NEW,SIMILAR,,,,,,,,
,,,,,,,,,,,,,,,,TestWords/KAI_LAY_TA.wav,,60ce6af707bcd42cbc885210,2021-08-01_22h47.48.508,Agingstudy,2020.2.10,Win32,60,,,,,C,,,,,,,,,,,,,,,1,1,0.8535,0,33,33,33,1,1,OLD,OLD,,,,,,,,
,,,,,,,,,,,,,,,,TestWords/DAI_RU_CHI.wav,,60ce6af707bcd42cbc885210,2021-08-01_22h47.48.508,Agingstudy,2020.2.10,Win32,60,,,,,C,,,,,,,,,,,,,,,1,1,1.0671,0,34,34,34,1,1,OLD,OLD,,,,,,,,
,,,,,,,,,,,,,,,,TestWords/KAY_LI_BA.wav,,60ce6af707bcd42cbc885210,2021-08-01_22h47.48.508,Agingstudy,2020.2.10,Win32,60,,,,,C,,,,,,,,,,,,,,,2,1,0.7407,0,35,35,35,1,2,NEW,SIMILAR,,,,,,,,
,,,,,,,,,,,,,,,,TestWords/GA_MU_ZI.wav,,60ce6af707bcd42cbc885210,2021-08-01_22h47.48.508,Agingstudy,2020.2.10,Win32,60,,,,,C,,,,,,,,,,,,,,,2,0,3.007,0,36,36,36,1,1,OLD,OLD,,,,,,,,
,,,,,,,,,,,,,,,,TestWords/RAY_PA_TI.wav,,60ce6af707bcd42cbc885210,2021-08-01_22h47.48.508,Agingstudy,2020.2.10,Win32,60,,,,,C,,,,,,,,,,,,,,,1,1,0.8526,0,37,37,37,1,1,OLD,OLD,,,,,,,,
,,,,,,,,,,,,,,,,TestWords/PU_MO_DAY.wav,,60ce6af707bcd42cbc885210,2021-08-01_22h47.48.508,Agingstudy,2020.2.10,Win32,60,,,,,C,,,,,,,,,,,,,,,2,1,1.6934,0,38,38,38,1,2,NEW,SIMILAR,,,,,,,,
,,,,,,,,,,,,,,,,TestWords/VAI_HO_LA.wav,,60ce6af707bcd42cbc885210,2021-08-01_22h47.48.508,Agingstudy,2020.2.10,Win32,60,,,,,C,,,,,,,,,,,,,,,2,1,0.8249,0,39,39,39,1,2,NEW,NEW,,,,,,,,
,,,,,,,,,,,,,,,,TestWords/KAI_LAY_TA.wav,,60ce6af707bcd42cbc885210,2021-08-01_22h47.48.508,Agingstudy,2020.2.10,Win32,60,,,,,C,,,,,,,,,,,,,,,1,1,2.1345,0,40,40,40,1,1,OLD,OLD,,,,,,,,
,,,,,,,,,,,,,,,,TestWords/KO_SU_FAI.wav,,60ce6af707bcd42cbc885210,2021-08-01_22h47.48.508,Agingstudy,2020.2.10,Win32,60,,,,,C,,,,,,,,,,,,,,,2,0,0.7055,0,41,41,41,1,1,OLD,OLD,,,,,,,,
,,,,,,,,,,,,,,,,TestWords/DAI_RU_CHI.wav,,60ce6af707bcd42cbc885210,2021-08-01_22h47.48.508,Agingstudy,2020.2.10,Win32,60,,,,,C,,,,,,,,,,,,,,,1,1,0.286,0,42,42,42,1,1,OLD,OLD,,,,,,,,
,,,,,,,,,,,,,,,,TestWords/WAI_VU_NA.wav,,60ce6af707bcd42cbc885210,2021-08-01_22h47.48.508,Agingstudy,2020.2.10,Win32,60,,,,,C,,,,,,,,,,,,,,,2,1,0.4336,0,43,43,43,1,2,NEW,NEW,,,,,,,,
,,,,,,,,,,,,,,,,TestWords/GA_MU_ZI.wav,,60ce6af707bcd42cbc885210,2021-08-01_22h47.48.508,Agingstudy,2020.2.10,Win32,60,,,,,C,,,,,,,,,,,,,,,1,1,0.2705,0,44,44,44,1,1,OLD,OLD,,,,,,,,
,,,,,,,,,,,,,,,,TestWords/KAY_BA_LI.wav,,60ce6af707bcd42cbc885210,2021-08-01_22h47.48.508,Agingstudy,2020.2.10,Win32,60,,,,,C,,,,,,,,,,,,,,,1,0,2.7594,0,45,45,45,1,2,NEW,SIMILAR,,,,,,,,
,,,,,,,,,,,,,,,,TestWords/MO_PU_DAY.wav,,60ce6af707bcd42cbc885210,2021-08-01_22h47.48.508,Agingstudy,2020.2.10,Win32,60,,,,,C,,,,,,,,,,,,,,,2,1,1.1884,0,46,46,46,1,2,NEW,SIMILAR,,,,,,,,
,,,,,,,,,,,,,,,,TestWords/RAY_PA_TI.wav,,60ce6af707bcd42cbc885210,2021-08-01_22h47.48.508,Agingstudy,2020.2.10,Win32,60,,,,,C,,,,,,,,,,,,,,,1,1,0.5833,0,47,47,47,1,1,OLD,OLD,,,,,,,,
,,,,,,,,,,,,,,,,TestWords/KAI_LAY_TA.wav,,60ce6af707bcd42cbc885210,2021-08-01_22h47.48.508,Agingstudy,2020.2.10,Win32,60,,,,,C,,,,,,,,,,,,,,,1,1,2.2388,0,48,48,48,1,1,OLD,OLD,,,,,,,,
,,,,,,,,,,,,,,,,TestWords/WAI_NA_VU.wav,,60ce6af707bcd42cbc885210,2021-08-01_22h47.48.508,Agingstudy,2020.2.10,Win32,60,,,,,C,,,,,,,,,,,,,,,1,0,0.9832,0,49,49,49,1,2,NEW,SIMILAR,,,,,,,,
,,,,,,,,,,,,,,,,TestWords/KO_SU_FAI.wav,,60ce6af707bcd42cbc885210,2021-08-01_22h47.48.508,Agingstudy,2020.2.10,Win32,60,,,,,C,,,,,,,,,,,,,,,2,0,0.4664,0,50,50,50,1,1,OLD,OLD,,,,,,,,
,,,,,,,,,,,,,,,,TestWords/GA_MU_ZI.wav,,60ce6af707bcd42cbc885210,2021-08-01_22h47.48.508,Agingstudy,2020.2.10,Win32,60,,,,,C,,,,,,,,,,,,,,,2,0,2.3985,0,51,51,51,1,1,OLD,OLD,,,,,,,,
,,,,,,,,,,,,,,,,TestWords/NU_CHAY_SO.wav,,60ce6af707bcd42cbc885210,2021-08-01_22h47.48.508,Agingstudy,2020.2.10,Win32,60,,,,,C,,,,,,,,,,,,,,,2,1,0.5338,0,52,52,52,1,2,NEW,NEW,,,,,,,,
,,,,,,,,,,,,,,,,TestWords/DAI_RU_CHI.wav,,60ce6af707bcd42cbc885210,2021-08-01_22h47.48.508,Agingstudy,2020.2.10,Win32,60,,,,,C,,,,,,,,,,,,,,,1,1,0.3346,0,53,53,53,1,1,OLD,OLD,,,,,,,,
,,,,,,,,,,,,,,,,TestWords/VU_NA_WAI.wav,,60ce6af707bcd42cbc885210,2021-08-01_22h47.48.508,Agingstudy,2020.2.10,Win32,60,,,,,C,,,,,,,,,,,,,,,2,1,2.8052,0,54,54,54,1,2,NEW,SIMILAR,,,,,,,,
,,,,,,,,,,,,,,,,TestWords/RAY_PA_TI.wav,,60ce6af707bcd42cbc885210,2021-08-01_22h47.48.508,Agingstudy,2020.2.10,Win32,60,,,,,C,,,,,,,,,,,,,,,1,1,0.6696,0,55,55,55,1,1,OLD,OLD,,,,,,,,
,,,,,,,,,,,,,,,,TestWords/KAI_LAY_TA.wav,,60ce6af707bcd42cbc885210,2021-08-01_22h47.48.508,Agingstudy,2020.2.10,Win32,60,,,,,C,,,,,,,,,,,,,,,1,1,1.7017,0,56,56,56,1,1,OLD,OLD,,,,,,,,
,,,,,,,,,,,,,,,,TestWords/LI_BA_KAY.wav,,60ce6af707bcd42cbc885210,2021-08-01_22h47.48.508,Agingstudy,2020.2.10,Win32,60,,,,,C,,,,,,,,,,,,,,,2,1,0.2195,0,57,57,57,1,2,NEW,SIMILAR,,,,,,,,
,,,,,,,,,,,,,,,,TestWords/GA_MU_ZI.wav,,60ce6af707bcd42cbc885210,2021-08-01_22h47.48.508,Agingstudy,2020.2.10,Win32,60,,,,,C,,,,,,,,,,,,,,,1,1,0.319,0,58,58,58,1,1,OLD,OLD,,,,,,,,
,,,,,,,,,,,,,,,,TestWords/WAI_RO_JU.wav,,60ce6af707bcd42cbc885210,2021-08-01_22h47.48.508,Agingstudy,2020.2.10,Win32,60,,,,,C,,,,,,,,,,,,,,,2,1,1.0329,0,59,59,59,1,2,NEW,NEW,,,,,,,,
,,,,,,,,,,,,,,,,TestWords/KO_SU_FAI.wav,,60ce6af707bcd42cbc885210,2021-08-01_22h47.48.508,Agingstudy,2020.2.10,Win32,60,,,,,C,,,,,,,,,,,,,,,2,0,0.14,0,60,60,60,1,1,OLD,OLD,,,,,,,,
,,,,,,,,,,,,,,,,TestWords/DAI_RU_CHI.wav,,60ce6af707bcd42cbc885210,2021-08-01_22h47.48.508,Agingstudy,2020.2.10,Win32,60,,,,,C,,,,,,,,,,,,,,,1,1,0.1834,0,61,61,61,1,1,OLD,OLD,,,,,,,,
,,,,,,,,,,,,,,,,TestWords/VU_WAI_NA.wav,,60ce6af707bcd42cbc885210,2021-08-01_22h47.48.508,Agingstudy,2020.2.10,Win32,60,,,,,C,,,,,,,,,,,,,,,1,0,0.4861,0,62,62,62,1,2,NEW,SIMILAR,,,,,,,,
,,,,,,,,,,,,,,,,TestWords/RAY_PA_TI.wav,,60ce6af707bcd42cbc885210,2021-08-01_22h47.48.508,Agingstudy,2020.2.10,Win32,60,,,,,C,,,,,,,,,,,,,,,1,1,0.5692,0,63,63,63,1,1,OLD,OLD,,,,,,,,
,,,,,,,,,,,,,,,,TestWords/KAI_LAY_TA.wav,,60ce6af707bcd42cbc885210,2021-08-01_22h47.48.508,Agingstudy,2020.2.10,Win32,60,,,,,C,,,,,,,,,,,,,,,1,1,0.4679,0,64,64,64,1,1,OLD,OLD,,,,,,,,
,,,,,,,,,,,,,,,,TestWords/GA_MU_ZI.wav,,60ce6af707bcd42cbc885210,2021-08-01_22h47.48.508,Agingstudy,2020.2.10,Win32,60,,,,,C,,,,,,,,,,,,,,,1,1,0.184,0,65,65,65,1,1,OLD,OLD,,,,,,,,
,,,,,,,,,,,,,,,,TestWords/BA_LI_KAY.wav,,60ce6af707bcd42cbc885210,2021-08-01_22h47.48.508,Agingstudy,2020.2.10,Win32,60,,,,,C,,,,,,,,,,,,,,,2,1,0.5035,0,66,66,66,1,2,NEW,SIMILAR,,,,,,,,
,,,,,,,,,,,,,,,,TestWords/NA_VU_WAI.wav,,60ce6af707bcd42cbc885210,2021-08-01_22h47.48.508,Agingstudy,2020.2.10,Win32,60,,,,,C,,,,,,,,,,,,,,,2,1,0.4833,0,67,67,67,1,2,NEW,SIMILAR,,,,,,,,
,,,,,,,,,,,,,,,,TestWords/KO_SU_FAI.wav,,60ce6af707bcd42cbc885210,2021-08-01_22h47.48.508,Agingstudy,2020.2.10,Win32,60,,,,,C,,,,,,,,,,,,,,,2,0,0.3883,0,68,68,68,1,1,OLD,OLD,,,,,,,,
,,,,,,,,,,,,,,,,TestWords/RAI_ZO_FU.wav,,60ce6af707bcd42cbc885210,2021-08-01_22h47.48.508,Agingstudy,2020.2.10,Win32,60,,,,,C,,,,,,,,,,,,,,,2,1,0.7613,0,69,69,69,1,2,NEW,NEW,,,,,,,,
,,,,,,,,,,,,,,,,TestWords/DAI_RU_CHI.wav,,60ce6af707bcd42cbc885210,2021-08-01_22h47.48.508,Agingstudy,2020.2.10,Win32,60,,,,,C,,,,,,,,,,,,,,,1,1,0.204,0,70,70,70,1,1,OLD,OLD,,,,,,,,
,,,,,,,,,,,,,,,,TestWords/RAY_PA_TI.wav,,60ce6af707bcd42cbc885210,2021-08-01_22h47.48.508,Agingstudy,2020.2.10,Win32,60,,,,,C,,,,,,,,,,,,,,,1,1,0.5004,0,71,71,71,1,1,OLD,OLD,,,,,,,,
,,,,,,,,,,,,,,,,TestWords/LI_KAY_BA.wav,,60ce6af707bcd42cbc885210,2021-08-01_22h47.48.508,Agingstudy,2020.2.10,Win32,60,,,,,C,,,,,,,,,,,,,,,2,1,0.2034,0,72,72,72,1,2,NEW,SIMILAR,,,,,,,,
,,,,,,,,,,,,,,,,TestWords/KAI_LAY_TA.wav,,60ce6af707bcd42cbc885210,2021-08-01_22h47.48.508,Agingstudy,2020.2.10,Win32,60,,,,,C,,,,,,,,,,,,,,,1,1,0.4704,0,73,73,73,1,1,OLD,OLD,,,,,,,,
,,,,,,,,,,,,,,,,TestWords/GA_MU_ZI.wav,,60ce6af707bcd42cbc885210,2021-08-01_22h47.48.508,Agingstudy,2020.2.10,Win32,60,,,,,C,,,,,,,,,,,,,,,1,1,0.3725,0,74,74,74,1,1,OLD,OLD,,,,,,,,
,,,,,,,,,,,,,,,,TestWords/NA_WAI_VU.wav,,60ce6af707bcd42cbc885210,2021-08-01_22h47.48.508,Agingstudy,2020.2.10,Win32,60,,,,,C,,,,,,,,,,,,,,,1,0,1.3711,0,75,75,75,1,2,NEW,SIMILAR,,,,,,,,
,,,,,,,,,,,,,,,,TestWords/KO_SU_FAI.wav,,60ce6af707bcd42cbc885210,2021-08-01_22h47.48.508,Agingstudy,2020.2.10,Win32,60,,,,,C,,,,,,,,,,,,,,,2,0,0.1623,0,76,76,76,1,1,OLD,OLD,,,,,,,,
,,,,,,,,,,,,,,,,TestWords/ZO_RAI_FU.wav,,60ce6af707bcd42cbc885210,2021-08-01_22h47.48.508,Agingstudy,2020.2.10,Win32,60,,,,,C,,,,,,,,,,,,,,,2,1,0.3026,0,77,77,77,1,2,NEW,SIMILAR,,,,,,,,
,,,,,,,,,,,,,,,,TestWords/RAY_PA_TI.wav,,60ce6af707bcd42cbc885210,2021-08-01_22h47.48.508,Agingstudy,2020.2.10,Win32,60,,,,,C,,,,,,,,,,,,,,,1,1,0.4728,0,78,78,78,1,1,OLD,OLD,,,,,,,,
,,,,,,,,,,,,,,,,TestWords/KAI_LAY_TA.wav,,60ce6af707bcd42cbc885210,2021-08-01_22h47.48.508,Agingstudy,2020.2.10,Win32,60,,,,,C,,,,,,,,,,,,,,,1,1,0.7016,0,79,79,79,1,1,OLD,OLD,,,,,,,,
,,,,,,,,,,,,,,,,TestWords/GA_MU_ZI.wav,,60ce6af707bcd42cbc885210,2021-08-01_22h47.48.508,Agingstudy,2020.2.10,Win32,60,,,,,C,,,,,,,,,,,,,,,1,1,0.3425,0,80,80,80,1,1,OLD,OLD,,,,,,,,
,,,,,,,,,,,,,,,,TestWords/DA_CHU_VAI.wav,,60ce6af707bcd42cbc885210,2021-08-01_22h47.48.508,Agingstudy,2020.2.10,Win32,60,,,,,C,,,,,,,,,,,,,,,2,1,1.8996,0,81,81,81,1,2,NEW,NEW,,,,,,,,
,,,,,,,,,,,,,,,,TestWords/DAI_RU_CHI.wav,,60ce6af707bcd42cbc885210,2021-08-01_22h47.48.508,Agingstudy,2020.2.10,Win32,60,,,,,C,,,,,,,,,,,,,,,1,1,0.6449,0,82,82,82,1,1,OLD,OLD,,,,,,,,
,,,,,,,,,,,,,,,,TestWords/FU_RAI_ZO.wav,,60ce6af707bcd42cbc885210,2021-08-01_22h47.48.508,Agingstudy,2020.2.10,Win32,60,,,,,C,,,,,,,,,,,,,,,2,1,0.1759,0,83,83,83,1,2,NEW,SIMILAR,,,,,,,,
,,,,,,,,,,,,,,,,TestWords/KO_SU_FAI.wav,,60ce6af707bcd42cbc885210,2021-08-01_22h47.48.508,Agingstudy,2020.2.10,Win32,60,,,,,C,,,,,,,,,,,,,,,2,0,0.3071,0,84,84,84,1,1,OLD,OLD,,,,,,,,
,,,,,,,,,,,,,,,,TestWords/RAY_PA_TI.wav,,60ce6af707bcd42cbc885210,2021-08-01_22h47.48.508,Agingstudy,2020.2.10,Win32,60,,,,,C,,,,,,,,,,,,,,,1,1,0.1214,0,85,85,85,1,1,OLD,OLD,,,,,,,,
,,,,,,,,,,,,,,,,TestWords/DAI_RU_CHI.wav,,60ce6af707bcd42cbc885210,2021-08-01_22h47.48.508,Agingstudy,2020.2.10,Win32,60,,,,,C,,,,,,,,,,,,,,,1,1,0.3843,0,86,86,86,1,1,OLD,OLD,,,,,,,,
,,,,,,,,,,,,,,,,TestWords/PAI_LU_WA.wav,,60ce6af707bcd42cbc885210,2021-08-01_22h47.48.508,Agingstudy,2020.2.10,Win32,60,,,,,C,,,,,,,,,,,,,,,2,1,0.3903,0,87,87,87,1,2,NEW,NEW,,,,,,,,
,,,,,,,,,,,,,,,,TestWords/GA_MU_ZI.wav,,60ce6af707bcd42cbc885210,2021-08-01_22h47.48.508,Agingstudy,2020.2.10,Win32,60,,,,,C,,,,,,,,,,,,,,,1,1,0.1446,0,88,88,88,1,1,OLD,OLD,,,,,,,,
,,,,,,,,,,,,,,,,TestWords/FU_ZO_RAI.wav,,60ce6af707bcd42cbc885210,2021-08-01_22h47.48.508,Agingstudy,2020.2.10,Win32,60,,,,,C,,,,,,,,,,,,,,,2,1,0.2207,0,89,89,89,1,2,NEW,SIMILAR,,,,,,,,
,,,,,,,,,,,,,,,,TestWords/RAY_PA_TI.wav,,60ce6af707bcd42cbc885210,2021-08-01_22h47.48.508,Agingstudy,2020.2.10,Win32,60,,,,,C,,,,,,,,,,,,,,,1,1,0.1586,0,90,90,90,1,1,OLD,OLD,,,,,,,,
,,,,,,,,,,,,,,,,TestWords/DAI_RU_CHI.wav,,60ce6af707bcd42cbc885210,2021-08-01_22h47.48.508,Agingstudy,2020.2.10,Win32,60,,,,,C,,,,,,,,,,,,,,,1,1,0.3257,0,91,91,91,1,1,OLD,OLD,,,,,,,,
,,,,,,,,,,,,,,,,TestWords/LA_ZAY_CHAI.wav,,60ce6af707bcd42cbc885210,2021-08-01_22h47.48.508,Agingstudy,2020.2.10,Win32,60,,,,,C,,,,,,,,,,,,,,,2,1,0.8526,0,92,92,92,1,2,NEW,NEW,,,,,,,,
,,,,,,,,,,,,,,,,TestWords/GA_MU_ZI.wav,,60ce6af707bcd42cbc885210,2021-08-01_22h47.48.508,Agingstudy,2020.2.10,Win32,60,,,,,C,,,,,,,,,,,,,,,1,1,0.9025,0,93,93,93,1,1,OLD,OLD,,,,,,,,
,,,,,,,,,,,,,,,,TestWords/RAI_FU_ZO.wav,,60ce6af707bcd42cbc885210,2021-08-01_22h47.48.508,Agingstudy,2020.2.10,Win32,60,,,,,C,,,,,,,,,,,,,,,1,0,2.7384,0,94,94,94,1,2,NEW,SIMILAR,,,,,,,,
,,,,,,,,,,,,,,,,TestWords/GU_CHAI_PI.wav,,60ce6af707bcd42cbc885210,2021-08-01_22h47.48.508,Agingstudy,2020.2.10,Win32,60,,,,,C,,,,,,,,,,,,,,,2,1,0.0892,0,95,95,95,1,2,NEW,NEW,,,,,,,,
,,,,,,,,,,,,,,,,TestWords/HI_NAY_VA.wav,,60ce6af707bcd42cbc885210,2021-08-01_22h47.48.508,Agingstudy,2020.2.10,Win32,60,,,,,C,,,,,,,,,,,,,,,2,1,0.2016,0,96,96,96,1,2,NEW,NEW,,,,,,,,
,,,,,,,,,,,,,,,,TestWords/GA_MU_ZI.wav,,60ce6af707bcd42cbc885210,2021-08-01_22h47.48.508,Agingstudy,2020.2.10,Win32,60,,,,,C,,,,,,,,,,,,,,,1,1,1.8723,0,97,97,97,1,1,OLD,OLD,,,,,,,,
,,,,,,,,,,,,,,,,TestWords/SI_VAI_CHU.wav,,60ce6af707bcd42cbc885210,2021-08-01_22h47.48.508,Agingstudy,2020.2.10,Win32,60,,,,,C,,,,,,,,,,,,,,,2,1,0.2057,0,98,98,98,1,2,NEW,NEW,,,,,,,,
,,,,,,,,,,,,,,,,TestWords/ZO_FU_RAI.wav,,60ce6af707bcd42cbc885210,2021-08-01_22h47.48.508,Agingstudy,2020.2.10,Win32,60,,,,,C,,,,,,,,,,,,,,,2,1,1.0668,0,99,99,99,1,2,NEW,SIMILAR,,,,,,,,
,,,,,,,,,,,,,,,,,,60ce6af707bcd42cbc885210,2021-08-01_22h47.48.508,Agingstudy,2020.2.10,Win32,60,,,,,,,,,,,,,,,,,,,,,,,,,,,,,,,0,0,0,0,1,,,
,,,,,,,,,,,,,,,,,,60ce6af707bcd42cbc885210,2021-08-01_22h47.48.508,Agingstudy,2020.2.10,Win32,60,,,,,,,,,,,,,,,,,,,,,,,,,,,,,,,,,,,,return,35.179,
