Welcome0Continue.keys,Welcome0Continue.rt,SoundCheckBegin.keys,SoundCheckBegin.rt,SoundCheckEndKey.keys,SoundCheckEndKey.rt,HeadphoneContinueKey.keys,HeadphoneContinueKey.rt,CheckResp.keys,CheckResp.corr,CheckResp.rt,HeadphoneLoop.thisRepN,HeadphoneLoop.thisTrialN,HeadphoneLoop.thisN,HeadphoneLoop.thisIndex,HeadphoneLoop.ran,File,Correct,participant,date,expName,psychopyVersion,OS,frameRate,RepeatAgainKey.keys,RepeatAgainKey.rt,RepeatAgainLoop.thisRepN,RepeatAgainLoop.thisTrialN,RepeatAgainLoop.thisN,RepeatAgainLoop.thisIndex,RepeatAgainLoop.ran,Headphone_retest.thisRepN,Headphone_retest.thisTrialN,Headphone_retest.thisN,Headphone_retest.thisIndex,Headphone_retest.ran,ContinueKey8.keys,ContinueKey8.rt,MSTWelcomeContKey.keys,MSTWelcomeContKey.rt,Condition,MSTTrainIntroKey.keys,MSTTrainIntroKey.rt,MSTTrainKeys.keys,MSTTrainKeys.corr,MSTTrainKeys.rt,MSTTrainLoop.thisRepN,MSTTrainLoop.thisTrialN,MSTTrainLoop.thisN,MSTTrainLoop.thisIndex,MSTTrainLoop.ran,SoundFile,Type,MSTTestBeginKey.keys,MSTTestBeginKey.rt,MST_resp.keys,MST_resp.corr,MST_resp.rt,MSTPlayLoop.thisRepN,MSTPlayLoop.thisTrialN,MSTPlayLoop.thisN,MSTPlayLoop.thisIndex,MSTPlayLoop.ran,WordCorrect,Correct_type,WordType,MSTLoop.thisRepN,MSTLoop.thisTrialN,MSTLoop.thisN,MSTLoop.thisIndex,MSTLoop.ran,EndAllKey.keys,EndAllKey.rt,FeedbackResp.text
space,8.125175,space,5.65911,space,15.13766,space,16.820855,1,0,2.729785,0,0,0,5,1,Headphone/t3_2.wav,3,60daa04078dbac52c1547920,2021-07-19_15h06.55.588,Agingstudy,2020.2.10,Linux armv7l,60,,,,,,,,,,,,,,,,,,,,,,,,,,,,,,,,,,,,,,,,,,,,,,,,,,
,,,,,,,,3,0,0.88805,0,1,1,2,1,Headphone/t2_1.wav,2,60daa04078dbac52c1547920,2021-07-19_15h06.55.588,Agingstudy,2020.2.10,Linux armv7l,60,,,,,,,,,,,,,,,,,,,,,,,,,,,,,,,,,,,,,,,,,,,,,,,,,,
,,,,,,,,3,0,0.67169,0,2,2,3,1,Headphone/t2_2.wav,2,60daa04078dbac52c1547920,2021-07-19_15h06.55.588,Agingstudy,2020.2.10,Linux armv7l,60,,,,,,,,,,,,,,,,,,,,,,,,,,,,,,,,,,,,,,,,,,,,,,,,,,
,,,,,,,,3,0,0.648635,0,3,3,0,1,Headphone/t1_1.wav,1,60daa04078dbac52c1547920,2021-07-19_15h06.55.588,Agingstudy,2020.2.10,Linux armv7l,60,,,,,,,,,,,,,,,,,,,,,,,,,,,,,,,,,,,,,,,,,,,,,,,,,,
,,,,,,,,2,0,1.073575,0,4,4,4,1,Headphone/t3_1.wav,3,60daa04078dbac52c1547920,2021-07-19_15h06.55.588,Agingstudy,2020.2.10,Linux armv7l,60,,,,,,,,,,,,,,,,,,,,,,,,,,,,,,,,,,,,,,,,,,,,,,,,,,
,,,,,,,,2,0,1.017885,0,5,5,1,1,Headphone/t1_2.wav,1,60daa04078dbac52c1547920,2021-07-19_15h06.55.588,Agingstudy,2020.2.10,Linux armv7l,60,,,,,,,,,,,,,,,,,,,,,,,,,,,,,,,,,,,,,,,,,,,,,,,,,,
,,,,,,,,,,,,,,,,,,60daa04078dbac52c1547920,2021-07-19_15h06.55.588,Agingstudy,2020.2.10,Linux armv7l,60,space,51.151855,0,0,0,0,1,,,,,,,,,,,,,,,,,,,,,,,,,,,,,,,,,,,,,,,,,,,
,,,,,,,,,,,,,,,,,,60daa04078dbac52c1547920,2021-07-19_15h06.55.588,Agingstudy,2020.2.10,Linux armv7l,60,,,,,,,,0,0,0,0,1,,,,,,,,,,,,,,,,,,,,,,,,,,,,,,,,,,,,,,
,,,,,,,,3,1,1.382635,0,0,0,5,1,Headphone/t3_2.wav,3,60daa04078dbac52c1547920,2021-07-19_15h06.55.588,Agingstudy,2020.2.10,Linux armv7l,60,,,,,,,,,,,,,,,,,,,,,,,,,,,,,,,,,,,,,,,,,,,,,,,,,,
,,,,,,,,3,1,0.936315,0,1,1,4,1,Headphone/t3_1.wav,3,60daa04078dbac52c1547920,2021-07-19_15h06.55.588,Agingstudy,2020.2.10,Linux armv7l,60,,,,,,,,,,,,,,,,,,,,,,,,,,,,,,,,,,,,,,,,,,,,,,,,,,
,,,,,,,,2,1,0.788295,0,2,2,3,1,Headphone/t2_2.wav,2,60daa04078dbac52c1547920,2021-07-19_15h06.55.588,Agingstudy,2020.2.10,Linux armv7l,60,,,,,,,,,,,,,,,,,,,,,,,,,,,,,,,,,,,,,,,,,,,,,,,,,,
,,,,,,,,1,1,0.668035,0,3,3,0,1,Headphone/t1_1.wav,1,60daa04078dbac52c1547920,2021-07-19_15h06.55.588,Agingstudy,2020.2.10,Linux armv7l,60,,,,,,,,,,,,,,,,,,,,,,,,,,,,,,,,,,,,,,,,,,,,,,,,,,
,,,,,,,,2,1,0.738505,0,4,4,2,1,Headphone/t2_1.wav,2,60daa04078dbac52c1547920,2021-07-19_15h06.55.588,Agingstudy,2020.2.10,Linux armv7l,60,,,,,,,,,,,,,,,,,,,,,,,,,,,,,,,,,,,,,,,,,,,,,,,,,,
,,,,,,,,1,1,0.61818,0,5,5,1,1,Headphone/t1_2.wav,1,60daa04078dbac52c1547920,2021-07-19_15h06.55.588,Agingstudy,2020.2.10,Linux armv7l,60,,,,,,,,,,,,,,,,,,,,,,,,,,,,,,,,,,,,,,,,,,,,,,,,,,
,,,,,,,,,,,,,,,,,2,60daa04078dbac52c1547920,2021-07-19_15h06.55.588,Agingstudy,2020.2.10,Linux armv7l,60,,,,,,,,,,,,,space,22.399155,space,8.437815,1,space,4.629905,2,1,7.762065,0,0,0,0,1,Training/FO_YI_LAY.wav,NEW,,,,,,,,,,,,,,,,,,,,,
,,,,,,,,,,,,,,,,,1,60daa04078dbac52c1547920,2021-07-19_15h06.55.588,Agingstudy,2020.2.10,Linux armv7l,60,,,,,,,,,,,,,,,,,,,,1,1,5.505195,0,1,1,1,1,Training/FO_YI_LAY.wav,OLD,,,,,,,,,,,,,,,,,,,,,
,,,,,,,,,,,,,,,,,2,60daa04078dbac52c1547920,2021-07-19_15h06.55.588,Agingstudy,2020.2.10,Linux armv7l,60,,,,,,,,,,,,,,,,,,,,2,1,2.529475,0,2,2,2,1,Training/YO_BU_JAY.wav,NEW,,,,,,,,,,,,,,,,,,,,,
,,,,,,,,,,,,,,,,,2,60daa04078dbac52c1547920,2021-07-19_15h06.55.588,Agingstudy,2020.2.10,Linux armv7l,60,,,,,,,,,,,,,,,,,,,,2,1,1.827635,0,3,3,3,1,Training/JAY_YO_BU.wav,SIMILAR,,,,,,,,,,,,,,,,,,,,,
,,,,,,,,,,,,,,,,,1,60daa04078dbac52c1547920,2021-07-19_15h06.55.588,Agingstudy,2020.2.10,Linux armv7l,60,,,,,,,,,,,,,,,,,,,,1,1,6.50258,0,4,4,4,1,Training/FO_YI_LAY.wav,OLD,,,,,,,,,,,,,,,,,,,,,
,,,,,,,,,,,,,,,,TestWords/LU_HAI_BO.wav,,60daa04078dbac52c1547920,2021-07-19_15h06.55.588,Agingstudy,2020.2.10,Linux armv7l,60,,,,,,,,,,,,,,,,,B,,,,,,,,,,,,,space,5.3986,2,1,1.926765,0,0,0,0,1,2,NEW,NEW,,,,,,,,
,,,,,,,,,,,,,,,,TestWords/CHU_LA_PAY.wav,,60daa04078dbac52c1547920,2021-07-19_15h06.55.588,Agingstudy,2020.2.10,Linux armv7l,60,,,,,,,,,,,,,,,,,B,,,,,,,,,,,,,,,2,1,2.406145,0,1,1,1,1,2,NEW,NEW,,,,,,,,
,,,,,,,,,,,,,,,,TestWords/RAY_PA_TI.wav,,60daa04078dbac52c1547920,2021-07-19_15h06.55.588,Agingstudy,2020.2.10,Linux armv7l,60,,,,,,,,,,,,,,,,,B,,,,,,,,,,,,,,,2,1,0.97504,0,2,2,2,1,2,NEW,NEW,,,,,,,,
,,,,,,,,,,,,,,,,TestWords/DA_CHU_VAI.wav,,60daa04078dbac52c1547920,2021-07-19_15h06.55.588,Agingstudy,2020.2.10,Linux armv7l,60,,,,,,,,,,,,,,,,,B,,,,,,,,,,,,,,,2,1,0.69744,0,3,3,3,1,2,NEW,NEW,,,,,,,,
,,,,,,,,,,,,,,,,TestWords/DAY_PU_MO.wav,,60daa04078dbac52c1547920,2021-07-19_15h06.55.588,Agingstudy,2020.2.10,Linux armv7l,60,,,,,,,,,,,,,,,,,B,,,,,,,,,,,,,,,2,1,0.492395,0,4,4,4,1,2,NEW,NEW,,,,,,,,
,,,,,,,,,,,,,,,,TestWords/DAI_RU_CHI.wav,,60daa04078dbac52c1547920,2021-07-19_15h06.55.588,Agingstudy,2020.2.10,Linux armv7l,60,,,,,,,,,,,,,,,,,B,,,,,,,,,,,,,,,2,1,0.562025,0,5,5,5,1,2,NEW,NEW,,,,,,,,
,,,,,,,,,,,,,,,,TestWords/RAI_ZO_FU.wav,,60daa04078dbac52c1547920,2021-07-19_15h06.55.588,Agingstudy,2020.2.10,Linux armv7l,60,,,,,,,,,,,,,,,,,B,,,,,,,,,,,,,,,2,1,0.73674,0,6,6,6,1,2,NEW,NEW,,,,,,,,
,,,,,,,,,,,,,,,,TestWords/HO_NAY_VA.wav,,60daa04078dbac52c1547920,2021-07-19_15h06.55.588,Agingstudy,2020.2.10,Linux armv7l,60,,,,,,,,,,,,,,,,,B,,,,,,,,,,,,,,,2,1,0.45962,0,7,7,7,1,2,NEW,NEW,,,,,,,,
,,,,,,,,,,,,,,,,TestWords/RAY_PA_TI.wav,,60daa04078dbac52c1547920,2021-07-19_15h06.55.588,Agingstudy,2020.2.10,Linux armv7l,60,,,,,,,,,,,,,,,,,B,,,,,,,,,,,,,,,1,1,1.77703,0,8,8,8,1,1,OLD,OLD,,,,,,,,
,,,,,,,,,,,,,,,,TestWords/DAY_MO_PU.wav,,60daa04078dbac52c1547920,2021-07-19_15h06.55.588,Agingstudy,2020.2.10,Linux armv7l,60,,,,,,,,,,,,,,,,,B,,,,,,,,,,,,,,,2,1,1.54564,0,9,9,9,1,2,NEW,SIMILAR,,,,,,,,
,,,,,,,,,,,,,,,,TestWords/TAI_SA_GI.wav,,60daa04078dbac52c1547920,2021-07-19_15h06.55.588,Agingstudy,2020.2.10,Linux armv7l,60,,,,,,,,,,,,,,,,,B,,,,,,,,,,,,,,,2,1,0.45141,0,10,10,10,1,2,NEW,NEW,,,,,,,,
,,,,,,,,,,,,,,,,TestWords/DAI_RU_CHI.wav,,60daa04078dbac52c1547920,2021-07-19_15h06.55.588,Agingstudy,2020.2.10,Linux armv7l,60,,,,,,,,,,,,,,,,,B,,,,,,,,,,,,,,,1,1,1.233745,0,11,11,11,1,1,OLD,OLD,,,,,,,,
,,,,,,,,,,,,,,,,TestWords/GA_MU_ZI.wav,,60daa04078dbac52c1547920,2021-07-19_15h06.55.588,Agingstudy,2020.2.10,Linux armv7l,60,,,,,,,,,,,,,,,,,B,,,,,,,,,,,,,,,2,1,0.35253,0,12,12,12,1,2,NEW,NEW,,,,,,,,
,,,,,,,,,,,,,,,,TestWords/ZO_RAI_FU.wav,,60daa04078dbac52c1547920,2021-07-19_15h06.55.588,Agingstudy,2020.2.10,Linux armv7l,60,,,,,,,,,,,,,,,,,B,,,,,,,,,,,,,,,2,1,0.339895,0,13,13,13,1,2,NEW,SIMILAR,,,,,,,,
,,,,,,,,,,,,,,,,TestWords/RAY_PA_TI.wav,,60daa04078dbac52c1547920,2021-07-19_15h06.55.588,Agingstudy,2020.2.10,Linux armv7l,60,,,,,,,,,,,,,,,,,B,,,,,,,,,,,,,,,1,1,0.432,0,14,14,14,1,1,OLD,OLD,,,,,,,,
,,,,,,,,,,,,,,,,TestWords/FI_GU_CHA.wav,,60daa04078dbac52c1547920,2021-07-19_15h06.55.588,Agingstudy,2020.2.10,Linux armv7l,60,,,,,,,,,,,,,,,,,B,,,,,,,,,,,,,,,2,1,0.29763,0,15,15,15,1,2,NEW,NEW,,,,,,,,
,,,,,,,,,,,,,,,,TestWords/MO_DAY_PU.wav,,60daa04078dbac52c1547920,2021-07-19_15h06.55.588,Agingstudy,2020.2.10,Linux armv7l,60,,,,,,,,,,,,,,,,,B,,,,,,,,,,,,,,,2,1,0.26467,0,16,16,16,1,2,NEW,SIMILAR,,,,,,,,
,,,,,,,,,,,,,,,,TestWords/GI_SA_TAI.wav,,60daa04078dbac52c1547920,2021-07-19_15h06.55.588,Agingstudy,2020.2.10,Linux armv7l,60,,,,,,,,,,,,,,,,,B,,,,,,,,,,,,,,,1,0,2.15194,0,17,17,17,1,2,NEW,SIMILAR,,,,,,,,
,,,,,,,,,,,,,,,,TestWords/FU_RAI_ZO.wav,,60daa04078dbac52c1547920,2021-07-19_15h06.55.588,Agingstudy,2020.2.10,Linux armv7l,60,,,,,,,,,,,,,,,,,B,,,,,,,,,,,,,,,2,1,0.350805,0,18,18,18,1,2,NEW,SIMILAR,,,,,,,,
,,,,,,,,,,,,,,,,TestWords/DAI_RU_CHI.wav,,60daa04078dbac52c1547920,2021-07-19_15h06.55.588,Agingstudy,2020.2.10,Linux armv7l,60,,,,,,,,,,,,,,,,,B,,,,,,,,,,,,,,,1,1,0.66108,0,19,19,19,1,1,OLD,OLD,,,,,,,,
,,,,,,,,,,,,,,,,TestWords/KO_SU_FAI.wav,,60daa04078dbac52c1547920,2021-07-19_15h06.55.588,Agingstudy,2020.2.10,Linux armv7l,60,,,,,,,,,,,,,,,,,B,,,,,,,,,,,,,,,2,1,0.33256,0,20,20,20,1,2,NEW,NEW,,,,,,,,
,,,,,,,,,,,,,,,,TestWords/GA_MU_ZI.wav,,60daa04078dbac52c1547920,2021-07-19_15h06.55.588,Agingstudy,2020.2.10,Linux armv7l,60,,,,,,,,,,,,,,,,,B,,,,,,,,,,,,,,,1,1,0.673515,0,21,21,21,1,1,OLD,OLD,,,,,,,,
,,,,,,,,,,,,,,,,TestWords/RAY_PA_TI.wav,,60daa04078dbac52c1547920,2021-07-19_15h06.55.588,Agingstudy,2020.2.10,Linux armv7l,60,,,,,,,,,,,,,,,,,B,,,,,,,,,,,,,,,1,1,0.35862,0,22,22,22,1,1,OLD,OLD,,,,,,,,
,,,,,,,,,,,,,,,,TestWords/PU_DAY_MO.wav,,60daa04078dbac52c1547920,2021-07-19_15h06.55.588,Agingstudy,2020.2.10,Linux armv7l,60,,,,,,,,,,,,,,,,,B,,,,,,,,,,,,,,,2,1,2.51393,0,23,23,23,1,2,NEW,SIMILAR,,,,,,,,
,,,,,,,,,,,,,,,,TestWords/GI_TAI_SA.wav,,60daa04078dbac52c1547920,2021-07-19_15h06.55.588,Agingstudy,2020.2.10,Linux armv7l,60,,,,,,,,,,,,,,,,,B,,,,,,,,,,,,,,,1,0,0.290825,0,24,24,24,1,2,NEW,SIMILAR,,,,,,,,
,,,,,,,,,,,,,,,,TestWords/KO_SU_FAI.wav,,60daa04078dbac52c1547920,2021-07-19_15h06.55.588,Agingstudy,2020.2.10,Linux armv7l,60,,,,,,,,,,,,,,,,,B,,,,,,,,,,,,,,,2,0,0.23862,0,25,25,25,1,1,OLD,OLD,,,,,,,,
,,,,,,,,,,,,,,,,TestWords/FU_ZO_RAI.wav,,60daa04078dbac52c1547920,2021-07-19_15h06.55.588,Agingstudy,2020.2.10,Linux armv7l,60,,,,,,,,,,,,,,,,,B,,,,,,,,,,,,,,,1,0,0.684815,0,26,26,26,1,2,NEW,SIMILAR,,,,,,,,
,,,,,,,,,,,,,,,,TestWords/DAI_RU_CHI.wav,,60daa04078dbac52c1547920,2021-07-19_15h06.55.588,Agingstudy,2020.2.10,Linux armv7l,60,,,,,,,,,,,,,,,,,B,,,,,,,,,,,,,,,1,1,1.08241,0,27,27,27,1,1,OLD,OLD,,,,,,,,
,,,,,,,,,,,,,,,,TestWords/RAY_PA_TI.wav,,60daa04078dbac52c1547920,2021-07-19_15h06.55.588,Agingstudy,2020.2.10,Linux armv7l,60,,,,,,,,,,,,,,,,,B,,,,,,,,,,,,,,,1,1,0.30587,0,28,28,28,1,1,OLD,OLD,,,,,,,,
,,,,,,,,,,,,,,,,TestWords/GA_MU_ZI.wav,,60daa04078dbac52c1547920,2021-07-19_15h06.55.588,Agingstudy,2020.2.10,Linux armv7l,60,,,,,,,,,,,,,,,,,B,,,,,,,,,,,,,,,1,1,0.62025,0,29,29,29,1,1,OLD,OLD,,,,,,,,
,,,,,,,,,,,,,,,,TestWords/WAI_VU_NA.wav,,60daa04078dbac52c1547920,2021-07-19_15h06.55.588,Agingstudy,2020.2.10,Linux armv7l,60,,,,,,,,,,,,,,,,,B,,,,,,,,,,,,,,,2,1,1.10765,0,30,30,30,1,2,NEW,NEW,,,,,,,,
,,,,,,,,,,,,,,,,TestWords/SA_TAI_GI.wav,,60daa04078dbac52c1547920,2021-07-19_15h06.55.588,Agingstudy,2020.2.10,Linux armv7l,60,,,,,,,,,,,,,,,,,B,,,,,,,,,,,,,,,1,0,2.760825,0,31,31,31,1,2,NEW,SIMILAR,,,,,,,,
,,,,,,,,,,,,,,,,TestWords/PU_MO_DAY.wav,,60daa04078dbac52c1547920,2021-07-19_15h06.55.588,Agingstudy,2020.2.10,Linux armv7l,60,,,,,,,,,,,,,,,,,B,,,,,,,,,,,,,,,2,1,0.19681,0,32,32,32,1,2,NEW,SIMILAR,,,,,,,,
,,,,,,,,,,,,,,,,TestWords/KO_SU_FAI.wav,,60daa04078dbac52c1547920,2021-07-19_15h06.55.588,Agingstudy,2020.2.10,Linux armv7l,60,,,,,,,,,,,,,,,,,B,,,,,,,,,,,,,,,2,0,0.221175,0,33,33,33,1,1,OLD,OLD,,,,,,,,
,,,,,,,,,,,,,,,,TestWords/RAI_FU_ZO.wav,,60daa04078dbac52c1547920,2021-07-19_15h06.55.588,Agingstudy,2020.2.10,Linux armv7l,60,,,,,,,,,,,,,,,,,B,,,,,,,,,,,,,,,1,0,1.77702,0,34,34,34,1,2,NEW,SIMILAR,,,,,,,,
,,,,,,,,,,,,,,,,TestWords/KAI_LAY_TA.wav,,60daa04078dbac52c1547920,2021-07-19_15h06.55.588,Agingstudy,2020.2.10,Linux armv7l,60,,,,,,,,,,,,,,,,,B,,,,,,,,,,,,,,,1,0,0.52784,0,35,35,35,1,2,NEW,NEW,,,,,,,,
,,,,,,,,,,,,,,,,TestWords/RAY_PA_TI.wav,,60daa04078dbac52c1547920,2021-07-19_15h06.55.588,Agingstudy,2020.2.10,Linux armv7l,60,,,,,,,,,,,,,,,,,B,,,,,,,,,,,,,,,1,1,0.09157,0,36,36,36,1,1,OLD,OLD,,,,,,,,
,,,,,,,,,,,,,,,,TestWords/WAI_NA_VU.wav,,60daa04078dbac52c1547920,2021-07-19_15h06.55.588,Agingstudy,2020.2.10,Linux armv7l,60,,,,,,,,,,,,,,,,,B,,,,,,,,,,,,,,,1,0,1.01955,0,37,37,37,1,2,NEW,SIMILAR,,,,,,,,
,,,,,,,,,,,,,,,,TestWords/GA_MU_ZI.wav,,60daa04078dbac52c1547920,2021-07-19_15h06.55.588,Agingstudy,2020.2.10,Linux armv7l,60,,,,,,,,,,,,,,,,,B,,,,,,,,,,,,,,,1,1,0.438485,0,38,38,38,1,1,OLD,OLD,,,,,,,,
,,,,,,,,,,,,,,,,TestWords/MO_PU_DAY.wav,,60daa04078dbac52c1547920,2021-07-19_15h06.55.588,Agingstudy,2020.2.10,Linux armv7l,60,,,,,,,,,,,,,,,,,B,,,,,,,,,,,,,,,2,1,1.24945,0,39,39,39,1,2,NEW,SIMILAR,,,,,,,,
,,,,,,,,,,,,,,,,TestWords/DAI_RU_CHI.wav,,60daa04078dbac52c1547920,2021-07-19_15h06.55.588,Agingstudy,2020.2.10,Linux armv7l,60,,,,,,,,,,,,,,,,,B,,,,,,,,,,,,,,,1,1,0.50571,0,40,40,40,1,1,OLD,OLD,,,,,,,,
,,,,,,,,,,,,,,,,TestWords/SA_GI_TAI.wav,,60daa04078dbac52c1547920,2021-07-19_15h06.55.588,Agingstudy,2020.2.10,Linux armv7l,60,,,,,,,,,,,,,,,,,B,,,,,,,,,,,,,,,1,0,0.45462,0,41,41,41,1,2,NEW,SIMILAR,,,,,,,,
,,,,,,,,,,,,,,,,TestWords/KO_SU_FAI.wav,,60daa04078dbac52c1547920,2021-07-19_15h06.55.588,Agingstudy,2020.2.10,Linux armv7l,60,,,,,,,,,,,,,,,,,B,,,,,,,,,,,,,,,2,0,0.244385,0,42,42,42,1,1,OLD,OLD,,,,,,,,
,,,,,,,,,,,,,,,,TestWords/ZO_FU_RAI.wav,,60daa04078dbac52c1547920,2021-07-19_15h06.55.588,Agingstudy,2020.2.10,Linux armv7l,60,,,,,,,,,,,,,,,,,B,,,,,,,,,,,,,,,1,0,1.931645,0,43,43,43,1,2,NEW,SIMILAR,,,,,,,,
,,,,,,,,,,,,,,,,TestWords/KAI_LAY_TA.wav,,60daa04078dbac52c1547920,2021-07-19_15h06.55.588,Agingstudy,2020.2.10,Linux armv7l,60,,,,,,,,,,,,,,,,,B,,,,,,,,,,,,,,,2,0,2.653985,0,44,44,44,1,1,OLD,OLD,,,,,,,,
,,,,,,,,,,,,,,,,TestWords/RAY_PA_TI.wav,,60daa04078dbac52c1547920,2021-07-19_15h06.55.588,Agingstudy,2020.2.10,Linux armv7l,60,,,,,,,,,,,,,,,,,B,,,,,,,,,,,,,,,1,1,0.14025,0,45,45,45,1,1,OLD,OLD,,,,,,,,
,,,,,,,,,,,,,,,,TestWords/DAI_RU_CHI.wav,,60daa04078dbac52c1547920,2021-07-19_15h06.55.588,Agingstudy,2020.2.10,Linux armv7l,60,,,,,,,,,,,,,,,,,B,,,,,,,,,,,,,,,1,1,0.323965,0,46,46,46,1,1,OLD,OLD,,,,,,,,
,,,,,,,,,,,,,,,,TestWords/VU_NA_WAI.wav,,60daa04078dbac52c1547920,2021-07-19_15h06.55.588,Agingstudy,2020.2.10,Linux armv7l,60,,,,,,,,,,,,,,,,,B,,,,,,,,,,,,,,,1,0,0.15253,0,47,47,47,1,2,NEW,SIMILAR,,,,,,,,
,,,,,,,,,,,,,,,,TestWords/TAI_GI_SA.wav,,60daa04078dbac52c1547920,2021-07-19_15h06.55.588,Agingstudy,2020.2.10,Linux armv7l,60,,,,,,,,,,,,,,,,,B,,,,,,,,,,,,,,,1,0,0.23027,0,48,48,48,1,2,NEW,SIMILAR,,,,,,,,
,,,,,,,,,,,,,,,,TestWords/GA_MU_ZI.wav,,60daa04078dbac52c1547920,2021-07-19_15h06.55.588,Agingstudy,2020.2.10,Linux armv7l,60,,,,,,,,,,,,,,,,,B,,,,,,,,,,,,,,,1,1,0.126675,0,49,49,49,1,1,OLD,OLD,,,,,,,,
,,,,,,,,,,,,,,,,TestWords/KO_SU_FAI.wav,,60daa04078dbac52c1547920,2021-07-19_15h06.55.588,Agingstudy,2020.2.10,Linux armv7l,60,,,,,,,,,,,,,,,,,B,,,,,,,,,,,,,,,2,0,2.543645,0,50,50,50,1,1,OLD,OLD,,,,,,,,
,,,,,,,,,,,,,,,,TestWords/KAI_LAY_TA.wav,,60daa04078dbac52c1547920,2021-07-19_15h06.55.588,Agingstudy,2020.2.10,Linux armv7l,60,,,,,,,,,,,,,,,,,B,,,,,,,,,,,,,,,2,0,2.012375,0,51,51,51,1,1,OLD,OLD,,,,,,,,
,,,,,,,,,,,,,,,,TestWords/HA_SI_JAI.wav,,60daa04078dbac52c1547920,2021-07-19_15h06.55.588,Agingstudy,2020.2.10,Linux armv7l,60,,,,,,,,,,,,,,,,,B,,,,,,,,,,,,,,,2,1,0.36304,0,52,52,52,1,2,NEW,NEW,,,,,,,,
,,,,,,,,,,,,,,,,TestWords/RAY_PA_TI.wav,,60daa04078dbac52c1547920,2021-07-19_15h06.55.588,Agingstudy,2020.2.10,Linux armv7l,60,,,,,,,,,,,,,,,,,B,,,,,,,,,,,,,,,1,1,0.057465,0,53,53,53,1,1,OLD,OLD,,,,,,,,
,,,,,,,,,,,,,,,,TestWords/VU_WAI_NA.wav,,60daa04078dbac52c1547920,2021-07-19_15h06.55.588,Agingstudy,2020.2.10,Linux armv7l,60,,,,,,,,,,,,,,,,,B,,,,,,,,,,,,,,,1,0,3.28208,0,54,54,54,1,2,NEW,SIMILAR,,,,,,,,
,,,,,,,,,,,,,,,,TestWords/DAI_RU_CHI.wav,,60daa04078dbac52c1547920,2021-07-19_15h06.55.588,Agingstudy,2020.2.10,Linux armv7l,60,,,,,,,,,,,,,,,,,B,,,,,,,,,,,,,,,1,1,0.634455,0,55,55,55,1,1,OLD,OLD,,,,,,,,
,,,,,,,,,,,,,,,,TestWords/GA_MU_ZI.wav,,60daa04078dbac52c1547920,2021-07-19_15h06.55.588,Agingstudy,2020.2.10,Linux armv7l,60,,,,,,,,,,,,,,,,,B,,,,,,,,,,,,,,,1,1,0.235695,0,56,56,56,1,1,OLD,OLD,,,,,,,,
,,,,,,,,,,,,,,,,TestWords/KAI_LAY_TA.wav,,60daa04078dbac52c1547920,2021-07-19_15h06.55.588,Agingstudy,2020.2.10,Linux armv7l,60,,,,,,,,,,,,,,,,,B,,,,,,,,,,,,,,,1,1,0.26422,0,57,57,57,1,1,OLD,OLD,,,,,,,,
,,,,,,,,,,,,,,,,TestWords/NU_CHAY_SO.wav,,60daa04078dbac52c1547920,2021-07-19_15h06.55.588,Agingstudy,2020.2.10,Linux armv7l,60,,,,,,,,,,,,,,,,,B,,,,,,,,,,,,,,,2,1,0.27637,0,58,58,58,1,2,NEW,NEW,,,,,,,,
,,,,,,,,,,,,,,,,TestWords/KO_SU_FAI.wav,,60daa04078dbac52c1547920,2021-07-19_15h06.55.588,Agingstudy,2020.2.10,Linux armv7l,60,,,,,,,,,,,,,,,,,B,,,,,,,,,,,,,,,2,0,0.21833,0,59,59,59,1,1,OLD,OLD,,,,,,,,
,,,,,,,,,,,,,,,,TestWords/RAY_PA_TI.wav,,60daa04078dbac52c1547920,2021-07-19_15h06.55.588,Agingstudy,2020.2.10,Linux armv7l,60,,,,,,,,,,,,,,,,,B,,,,,,,,,,,,,,,1,1,0.113705,0,60,60,60,1,1,OLD,OLD,,,,,,,,
,,,,,,,,,,,,,,,,TestWords/BA_KAY_LI.wav,,60daa04078dbac52c1547920,2021-07-19_15h06.55.588,Agingstudy,2020.2.10,Linux armv7l,60,,,,,,,,,,,,,,,,,B,,,,,,,,,,,,,,,2,1,0.06888,0,61,61,61,1,2,NEW,NEW,,,,,,,,
,,,,,,,,,,,,,,,,TestWords/KAI_LAY_TA.wav,,60daa04078dbac52c1547920,2021-07-19_15h06.55.588,Agingstudy,2020.2.10,Linux armv7l,60,,,,,,,,,,,,,,,,,B,,,,,,,,,,,,,,,1,1,1.833235,0,62,62,62,1,1,OLD,OLD,,,,,,,,
,,,,,,,,,,,,,,,,TestWords/NA_VU_WAI.wav,,60daa04078dbac52c1547920,2021-07-19_15h06.55.588,Agingstudy,2020.2.10,Linux armv7l,60,,,,,,,,,,,,,,,,,B,,,,,,,,,,,,,,,1,0,0.56054,0,63,63,63,1,2,NEW,SIMILAR,,,,,,,,
,,,,,,,,,,,,,,,,TestWords/GA_MU_ZI.wav,,60daa04078dbac52c1547920,2021-07-19_15h06.55.588,Agingstudy,2020.2.10,Linux armv7l,60,,,,,,,,,,,,,,,,,B,,,,,,,,,,,,,,,1,1,0.24425,0,64,64,64,1,1,OLD,OLD,,,,,,,,
,,,,,,,,,,,,,,,,TestWords/KO_SU_FAI.wav,,60daa04078dbac52c1547920,2021-07-19_15h06.55.588,Agingstudy,2020.2.10,Linux armv7l,60,,,,,,,,,,,,,,,,,B,,,,,,,,,,,,,,,1,1,0.595185,0,65,65,65,1,1,OLD,OLD,,,,,,,,
,,,,,,,,,,,,,,,,TestWords/DAI_RU_CHI.wav,,60daa04078dbac52c1547920,2021-07-19_15h06.55.588,Agingstudy,2020.2.10,Linux armv7l,60,,,,,,,,,,,,,,,,,B,,,,,,,,,,,,,,,1,1,0.54576,0,66,66,66,1,1,OLD,OLD,,,,,,,,
,,,,,,,,,,,,,,,,TestWords/GU_CHAI_PI.wav,,60daa04078dbac52c1547920,2021-07-19_15h06.55.588,Agingstudy,2020.2.10,Linux armv7l,60,,,,,,,,,,,,,,,,,B,,,,,,,,,,,,,,,2,1,0.27694,0,67,67,67,1,2,NEW,NEW,,,,,,,,
,,,,,,,,,,,,,,,,TestWords/RAY_PA_TI.wav,,60daa04078dbac52c1547920,2021-07-19_15h06.55.588,Agingstudy,2020.2.10,Linux armv7l,60,,,,,,,,,,,,,,,,,B,,,,,,,,,,,,,,,1,1,0.07047,0,68,68,68,1,1,OLD,OLD,,,,,,,,
,,,,,,,,,,,,,,,,TestWords/KAY_LI_BA.wav,,60daa04078dbac52c1547920,2021-07-19_15h06.55.588,Agingstudy,2020.2.10,Linux armv7l,60,,,,,,,,,,,,,,,,,B,,,,,,,,,,,,,,,2,1,0.70061,0,69,69,69,1,2,NEW,SIMILAR,,,,,,,,
,,,,,,,,,,,,,,,,TestWords/KAI_LAY_TA.wav,,60daa04078dbac52c1547920,2021-07-19_15h06.55.588,Agingstudy,2020.2.10,Linux armv7l,60,,,,,,,,,,,,,,,,,B,,,,,,,,,,,,,,,1,1,3.381735,0,70,70,70,1,1,OLD,OLD,,,,,,,,
,,,,,,,,,,,,,,,,TestWords/KO_SU_FAI.wav,,60daa04078dbac52c1547920,2021-07-19_15h06.55.588,Agingstudy,2020.2.10,Linux armv7l,60,,,,,,,,,,,,,,,,,B,,,,,,,,,,,,,,,2,0,2.97319,0,71,71,71,1,1,OLD,OLD,,,,,,,,
,,,,,,,,,,,,,,,,TestWords/DAI_RU_CHI.wav,,60daa04078dbac52c1547920,2021-07-19_15h06.55.588,Agingstudy,2020.2.10,Linux armv7l,60,,,,,,,,,,,,,,,,,B,,,,,,,,,,,,,,,1,1,0.65567,0,72,72,72,1,1,OLD,OLD,,,,,,,,
,,,,,,,,,,,,,,,,TestWords/NA_WAI_VU.wav,,60daa04078dbac52c1547920,2021-07-19_15h06.55.588,Agingstudy,2020.2.10,Linux armv7l,60,,,,,,,,,,,,,,,,,B,,,,,,,,,,,,,,,1,0,0.952,0,73,73,73,1,2,NEW,SIMILAR,,,,,,,,
,,,,,,,,,,,,,,,,TestWords/GA_MU_ZI.wav,,60daa04078dbac52c1547920,2021-07-19_15h06.55.588,Agingstudy,2020.2.10,Linux armv7l,60,,,,,,,,,,,,,,,,,B,,,,,,,,,,,,,,,1,1,0.310105,0,74,74,74,1,1,OLD,OLD,,,,,,,,
,,,,,,,,,,,,,,,,TestWords/KAY_BA_LI.wav,,60daa04078dbac52c1547920,2021-07-19_15h06.55.588,Agingstudy,2020.2.10,Linux armv7l,60,,,,,,,,,,,,,,,,,B,,,,,,,,,,,,,,,2,1,2.870645,0,75,75,75,1,2,NEW,SIMILAR,,,,,,,,
,,,,,,,,,,,,,,,,TestWords/WAI_RO_JU.wav,,60daa04078dbac52c1547920,2021-07-19_15h06.55.588,Agingstudy,2020.2.10,Linux armv7l,60,,,,,,,,,,,,,,,,,B,,,,,,,,,,,,,,,2,1,0.62831,0,76,76,76,1,2,NEW,NEW,,,,,,,,
,,,,,,,,,,,,,,,,TestWords/RAY_PA_TI.wav,,60daa04078dbac52c1547920,2021-07-19_15h06.55.588,Agingstudy,2020.2.10,Linux armv7l,60,,,,,,,,,,,,,,,,,B,,,,,,,,,,,,,,,1,1,0.125025,0,77,77,77,1,1,OLD,OLD,,,,,,,,
,,,,,,,,,,,,,,,,TestWords/KAI_LAY_TA.wav,,60daa04078dbac52c1547920,2021-07-19_15h06.55.588,Agingstudy,2020.2.10,Linux armv7l,60,,,,,,,,,,,,,,,,,B,,,,,,,,,,,,,,,1,1,0.37595,0,78,78,78,1,1,OLD,OLD,,,,,,,,
,,,,,,,,,,,,,,,,TestWords/HI_NAY_VA.wav,,60daa04078dbac52c1547920,2021-07-19_15h06.55.588,Agingstudy,2020.2.10,Linux armv7l,60,,,,,,,,,,,,,,,,,B,,,,,,,,,,,,,,,2,1,0.180165,0,79,79,79,1,2,NEW,NEW,,,,,,,,
,,,,,,,,,,,,,,,,TestWords/KO_SU_FAI.wav,,60daa04078dbac52c1547920,2021-07-19_15h06.55.588,Agingstudy,2020.2.10,Linux armv7l,60,,,,,,,,,,,,,,,,,B,,,,,,,,,,,,,,,2,0,0.684195,0,80,80,80,1,1,OLD,OLD,,,,,,,,
,,,,,,,,,,,,,,,,TestWords/GA_MU_ZI.wav,,60daa04078dbac52c1547920,2021-07-19_15h06.55.588,Agingstudy,2020.2.10,Linux armv7l,60,,,,,,,,,,,,,,,,,B,,,,,,,,,,,,,,,1,1,0.588945,0,81,81,81,1,1,OLD,OLD,,,,,,,,
,,,,,,,,,,,,,,,,TestWords/KAI_LAY_TA.wav,,60daa04078dbac52c1547920,2021-07-19_15h06.55.588,Agingstudy,2020.2.10,Linux armv7l,60,,,,,,,,,,,,,,,,,B,,,,,,,,,,,,,,,1,1,0.215685,0,82,82,82,1,1,OLD,OLD,,,,,,,,
,,,,,,,,,,,,,,,,TestWords/LI_BA_KAY.wav,,60daa04078dbac52c1547920,2021-07-19_15h06.55.588,Agingstudy,2020.2.10,Linux armv7l,60,,,,,,,,,,,,,,,,,B,,,,,,,,,,,,,,,2,1,0.19294,0,83,83,83,1,2,NEW,SIMILAR,,,,,,,,
,,,,,,,,,,,,,,,,TestWords/DAI_RU_CHI.wav,,60daa04078dbac52c1547920,2021-07-19_15h06.55.588,Agingstudy,2020.2.10,Linux armv7l,60,,,,,,,,,,,,,,,,,B,,,,,,,,,,,,,,,1,1,0.56969,0,84,84,84,1,1,OLD,OLD,,,,,,,,
,,,,,,,,,,,,,,,,TestWords/KO_SU_FAI.wav,,60daa04078dbac52c1547920,2021-07-19_15h06.55.588,Agingstudy,2020.2.10,Linux armv7l,60,,,,,,,,,,,,,,,,,B,,,,,,,,,,,,,,,1,1,0.75398,0,85,85,85,1,1,OLD,OLD,,,,,,,,
,,,,,,,,,,,,,,,,TestWords/NO_WA_BAY.wav,,60daa04078dbac52c1547920,2021-07-19_15h06.55.588,Agingstudy,2020.2.10,Linux armv7l,60,,,,,,,,,,,,,,,,,B,,,,,,,,,,,,,,,2,1,0.38289,0,86,86,86,1,2,NEW,NEW,,,,,,,,
,,,,,,,,,,,,,,,,TestWords/KAI_LAY_TA.wav,,60daa04078dbac52c1547920,2021-07-19_15h06.55.588,Agingstudy,2020.2.10,Linux armv7l,60,,,,,,,,,,,,,,,,,B,,,,,,,,,,,,,,,1,1,1.9172,0,87,87,87,1,1,OLD,OLD,,,,,,,,
,,,,,,,,,,,,,,,,TestWords/GA_MU_ZI.wav,,60daa04078dbac52c1547920,2021-07-19_15h06.55.588,Agingstudy,2020.2.10,Linux armv7l,60,,,,,,,,,,,,,,,,,B,,,,,,,,,,,,,,,1,1,0.25496,0,88,88,88,1,1,OLD,OLD,,,,,,,,
,,,,,,,,,,,,,,,,TestWords/DAI_RU_CHI.wav,,60daa04078dbac52c1547920,2021-07-19_15h06.55.588,Agingstudy,2020.2.10,Linux armv7l,60,,,,,,,,,,,,,,,,,B,,,,,,,,,,,,,,,1,1,0.64856,0,89,89,89,1,1,OLD,OLD,,,,,,,,
,,,,,,,,,,,,,,,,TestWords/LA_ZAY_CHAI.wav,,60daa04078dbac52c1547920,2021-07-19_15h06.55.588,Agingstudy,2020.2.10,Linux armv7l,60,,,,,,,,,,,,,,,,,B,,,,,,,,,,,,,,,2,1,0.46026,0,90,90,90,1,2,NEW,NEW,,,,,,,,
,,,,,,,,,,,,,,,,TestWords/BA_LI_KAY.wav,,60daa04078dbac52c1547920,2021-07-19_15h06.55.588,Agingstudy,2020.2.10,Linux armv7l,60,,,,,,,,,,,,,,,,,B,,,,,,,,,,,,,,,2,1,0.45839,0,91,91,91,1,2,NEW,SIMILAR,,,,,,,,
,,,,,,,,,,,,,,,,TestWords/PAI_LU_WA.wav,,60daa04078dbac52c1547920,2021-07-19_15h06.55.588,Agingstudy,2020.2.10,Linux armv7l,60,,,,,,,,,,,,,,,,,B,,,,,,,,,,,,,,,2,1,0.588465,0,92,92,92,1,2,NEW,NEW,,,,,,,,
,,,,,,,,,,,,,,,,TestWords/KO_SU_FAI.wav,,60daa04078dbac52c1547920,2021-07-19_15h06.55.588,Agingstudy,2020.2.10,Linux armv7l,60,,,,,,,,,,,,,,,,,B,,,,,,,,,,,,,,,2,0,0.57887,0,93,93,93,1,1,OLD,OLD,,,,,,,,
,,,,,,,,,,,,,,,,TestWords/KAI_LAY_TA.wav,,60daa04078dbac52c1547920,2021-07-19_15h06.55.588,Agingstudy,2020.2.10,Linux armv7l,60,,,,,,,,,,,,,,,,,B,,,,,,,,,,,,,,,1,1,0.58917,0,94,94,94,1,1,OLD,OLD,,,,,,,,
,,,,,,,,,,,,,,,,TestWords/VAI_HO_LA.wav,,60daa04078dbac52c1547920,2021-07-19_15h06.55.588,Agingstudy,2020.2.10,Linux armv7l,60,,,,,,,,,,,,,,,,,B,,,,,,,,,,,,,,,2,1,0.518375,0,95,95,95,1,2,NEW,NEW,,,,,,,,
,,,,,,,,,,,,,,,,TestWords/GA_MU_ZI.wav,,60daa04078dbac52c1547920,2021-07-19_15h06.55.588,Agingstudy,2020.2.10,Linux armv7l,60,,,,,,,,,,,,,,,,,B,,,,,,,,,,,,,,,1,1,0.41247,0,96,96,96,1,1,OLD,OLD,,,,,,,,
,,,,,,,,,,,,,,,,TestWords/LI_KAY_BA.wav,,60daa04078dbac52c1547920,2021-07-19_15h06.55.588,Agingstudy,2020.2.10,Linux armv7l,60,,,,,,,,,,,,,,,,,B,,,,,,,,,,,,,,,2,1,0.23307,0,97,97,97,1,2,NEW,SIMILAR,,,,,,,,
,,,,,,,,,,,,,,,,TestWords/KAI_LAY_TA.wav,,60daa04078dbac52c1547920,2021-07-19_15h06.55.588,Agingstudy,2020.2.10,Linux armv7l,60,,,,,,,,,,,,,,,,,B,,,,,,,,,,,,,,,1,1,0.272805,0,98,98,98,1,1,OLD,OLD,,,,,,,,
,,,,,,,,,,,,,,,,TestWords/SI_VAI_CHU.wav,,60daa04078dbac52c1547920,2021-07-19_15h06.55.588,Agingstudy,2020.2.10,Linux armv7l,60,,,,,,,,,,,,,,,,,B,,,,,,,,,,,,,,,2,1,0.611025,0,99,99,99,1,2,NEW,NEW,,,,,,,,
,,,,,,,,,,,,,,,,,,60daa04078dbac52c1547920,2021-07-19_15h06.55.588,Agingstudy,2020.2.10,Linux armv7l,60,,,,,,,,,,,,,,,,,,,,,,,,,,,,,,,,,,,,,,,,,,,0,0,0,0,1,,,
,,,,,,,,,,,,,,,,,,60daa04078dbac52c1547920,2021-07-19_15h06.55.588,Agingstudy,2020.2.10,Linux armv7l,60,,,,,,,,,,,,,,,,,,,,,,,,,,,,,,,,,,,,,,,,,,,,,,,,return,22.59582,"None, everything worked well."
