Welcome0Continue.keys,Welcome0Continue.rt,SoundCheckBegin.keys,SoundCheckBegin.rt,SoundCheckEndKey.keys,SoundCheckEndKey.rt,HeadphoneContinueKey.keys,HeadphoneContinueKey.rt,CheckResp.keys,CheckResp.corr,CheckResp.rt,HeadphoneLoop.thisRepN,HeadphoneLoop.thisTrialN,HeadphoneLoop.thisN,HeadphoneLoop.thisIndex,HeadphoneLoop.ran,File,Correct,participant,date,expName,psychopyVersion,OS,frameRate,RepeatAgainKey.keys,RepeatAgainKey.rt,RepeatAgainLoop.thisRepN,RepeatAgainLoop.thisTrialN,RepeatAgainLoop.thisN,RepeatAgainLoop.thisIndex,RepeatAgainLoop.ran,Headphone_retest.thisRepN,Headphone_retest.thisTrialN,Headphone_retest.thisN,Headphone_retest.thisIndex,Headphone_retest.ran,ContinueKey8.keys,ContinueKey8.rt,MSTWelcomeContKey.keys,MSTWelcomeContKey.rt,Condition,MSTTrainIntroKey.keys,MSTTrainIntroKey.rt,MSTTrainKeys.keys,MSTTrainKeys.corr,MSTTrainKeys.rt,MSTTrainLoop.thisRepN,MSTTrainLoop.thisTrialN,MSTTrainLoop.thisN,MSTTrainLoop.thisIndex,MSTTrainLoop.ran,SoundFile,Type,MSTTestBeginKey.keys,MSTTestBeginKey.rt,MST_resp.keys,MST_resp.corr,MST_resp.rt,MSTPlayLoop.thisRepN,MSTPlayLoop.thisTrialN,MSTPlayLoop.thisN,MSTPlayLoop.thisIndex,MSTPlayLoop.ran,WordCorrect,Correct_type,WordType,MSTLoop.thisRepN,MSTLoop.thisTrialN,MSTLoop.thisN,MSTLoop.thisIndex,MSTLoop.ran,EndAllKey.keys,EndAllKey.rt,FeedbackResp.text
space,11.5096,space,6.3569,space,7.7324,space,21.2204,1,0,8.0112,0,0,0,4,1,Headphone/t3_1.wav,3,60de493b30efe44c987e2d64,2021-08-01_21h35.17.931,Agingstudy,2020.2.10,Linux aarch64,60,,,,,,,,,,,,,,,,,,,,,,,,,,,,,,,,,,,,,,,,,,,,,,,,,,
,,,,,,,,1,0,5.4168,0,1,1,5,1,Headphone/t3_2.wav,3,60de493b30efe44c987e2d64,2021-08-01_21h35.17.931,Agingstudy,2020.2.10,Linux aarch64,60,,,,,,,,,,,,,,,,,,,,,,,,,,,,,,,,,,,,,,,,,,,,,,,,,,
,,,,,,,,1,0,3.13,0,2,2,3,1,Headphone/t2_2.wav,2,60de493b30efe44c987e2d64,2021-08-01_21h35.17.931,Agingstudy,2020.2.10,Linux aarch64,60,,,,,,,,,,,,,,,,,,,,,,,,,,,,,,,,,,,,,,,,,,,,,,,,,,
,,,,,,,,3,0,4.204,0,3,3,0,1,Headphone/t1_1.wav,1,60de493b30efe44c987e2d64,2021-08-01_21h35.17.931,Agingstudy,2020.2.10,Linux aarch64,60,,,,,,,,,,,,,,,,,,,,,,,,,,,,,,,,,,,,,,,,,,,,,,,,,,
,,,,,,,,1,0,1.8922,0,4,4,2,1,Headphone/t2_1.wav,2,60de493b30efe44c987e2d64,2021-08-01_21h35.17.931,Agingstudy,2020.2.10,Linux aarch64,60,,,,,,,,,,,,,,,,,,,,,,,,,,,,,,,,,,,,,,,,,,,,,,,,,,
,,,,,,,,2,0,3.765,0,5,5,1,1,Headphone/t1_2.wav,1,60de493b30efe44c987e2d64,2021-08-01_21h35.17.931,Agingstudy,2020.2.10,Linux aarch64,60,,,,,,,,,,,,,,,,,,,,,,,,,,,,,,,,,,,,,,,,,,,,,,,,,,
,,,,,,,,,,,,,,,,,,60de493b30efe44c987e2d64,2021-08-01_21h35.17.931,Agingstudy,2020.2.10,Linux aarch64,60,space,8.1752,0,0,0,0,1,,,,,,,,,,,,,,,,,,,,,,,,,,,,,,,,,,,,,,,,,,,
,,,,,,,,,,,,,,,,,,60de493b30efe44c987e2d64,2021-08-01_21h35.17.931,Agingstudy,2020.2.10,Linux aarch64,60,,,,,,,,0,0,0,0,1,,,,,,,,,,,,,,,,,,,,,,,,,,,,,,,,,,,,,,
,,,,,,,,1,0,4.9571,0,0,0,5,1,Headphone/t3_2.wav,3,60de493b30efe44c987e2d64,2021-08-01_21h35.17.931,Agingstudy,2020.2.10,Linux aarch64,60,,,,,,,,,,,,,,,,,,,,,,,,,,,,,,,,,,,,,,,,,,,,,,,,,,
,,,,,,,,2,1,1.9192,0,1,1,2,1,Headphone/t2_1.wav,2,60de493b30efe44c987e2d64,2021-08-01_21h35.17.931,Agingstudy,2020.2.10,Linux aarch64,60,,,,,,,,,,,,,,,,,,,,,,,,,,,,,,,,,,,,,,,,,,,,,,,,,,
,,,,,,,,1,1,0.891,0,2,2,0,1,Headphone/t1_1.wav,1,60de493b30efe44c987e2d64,2021-08-01_21h35.17.931,Agingstudy,2020.2.10,Linux aarch64,60,,,,,,,,,,,,,,,,,,,,,,,,,,,,,,,,,,,,,,,,,,,,,,,,,,
,,,,,,,,3,1,5.9111,0,3,3,4,1,Headphone/t3_1.wav,3,60de493b30efe44c987e2d64,2021-08-01_21h35.17.931,Agingstudy,2020.2.10,Linux aarch64,60,,,,,,,,,,,,,,,,,,,,,,,,,,,,,,,,,,,,,,,,,,,,,,,,,,
,,,,,,,,1,1,0.7681,0,4,4,1,1,Headphone/t1_2.wav,1,60de493b30efe44c987e2d64,2021-08-01_21h35.17.931,Agingstudy,2020.2.10,Linux aarch64,60,,,,,,,,,,,,,,,,,,,,,,,,,,,,,,,,,,,,,,,,,,,,,,,,,,
,,,,,,,,2,1,0.7433,0,5,5,3,1,Headphone/t2_2.wav,2,60de493b30efe44c987e2d64,2021-08-01_21h35.17.931,Agingstudy,2020.2.10,Linux aarch64,60,,,,,,,,,,,,,,,,,,,,,,,,,,,,,,,,,,,,,,,,,,,,,,,,,,
,,,,,,,,,,,,,,,,,2,60de493b30efe44c987e2d64,2021-08-01_21h35.17.931,Agingstudy,2020.2.10,Linux aarch64,60,,,,,,,,,,,,,space,44.4868,space,9.7279,1,space,6.9761,2,1,3.2342,0,0,0,0,1,Training/FO_YI_LAY.wav,NEW,,,,,,,,,,,,,,,,,,,,,
,,,,,,,,,,,,,,,,,1,60de493b30efe44c987e2d64,2021-08-01_21h35.17.931,Agingstudy,2020.2.10,Linux aarch64,60,,,,,,,,,,,,,,,,,,,,1,1,3.6564,0,1,1,1,1,Training/FO_YI_LAY.wav,OLD,,,,,,,,,,,,,,,,,,,,,
,,,,,,,,,,,,,,,,,2,60de493b30efe44c987e2d64,2021-08-01_21h35.17.931,Agingstudy,2020.2.10,Linux aarch64,60,,,,,,,,,,,,,,,,,,,,2,1,2.1878,0,2,2,2,1,Training/YO_BU_JAY.wav,NEW,,,,,,,,,,,,,,,,,,,,,
,,,,,,,,,,,,,,,,,2,60de493b30efe44c987e2d64,2021-08-01_21h35.17.931,Agingstudy,2020.2.10,Linux aarch64,60,,,,,,,,,,,,,,,,,,,,2,1,2.8387,0,3,3,3,1,Training/JAY_YO_BU.wav,SIMILAR,,,,,,,,,,,,,,,,,,,,,
,,,,,,,,,,,,,,,,,1,60de493b30efe44c987e2d64,2021-08-01_21h35.17.931,Agingstudy,2020.2.10,Linux aarch64,60,,,,,,,,,,,,,,,,,,,,1,1,1.0397,0,4,4,4,1,Training/FO_YI_LAY.wav,OLD,,,,,,,,,,,,,,,,,,,,,
,,,,,,,,,,,,,,,,TestWords/HA_SI_JAI.wav,,60de493b30efe44c987e2d64,2021-08-01_21h35.17.931,Agingstudy,2020.2.10,Linux aarch64,60,,,,,,,,,,,,,,,,,C,,,,,,,,,,,,,space,4.3162,2,1,1.82,0,0,0,0,1,2,NEW,NEW,,,,,,,,
,,,,,,,,,,,,,,,,TestWords/NO_WA_BAY.wav,,60de493b30efe44c987e2d64,2021-08-01_21h35.17.931,Agingstudy,2020.2.10,Linux aarch64,60,,,,,,,,,,,,,,,,,C,,,,,,,,,,,,,,,2,1,1.2301,0,1,1,1,1,2,NEW,NEW,,,,,,,,
,,,,,,,,,,,,,,,,TestWords/KO_SU_FAI.wav,,60de493b30efe44c987e2d64,2021-08-01_21h35.17.931,Agingstudy,2020.2.10,Linux aarch64,60,,,,,,,,,,,,,,,,,C,,,,,,,,,,,,,,,2,1,1.321,0,2,2,2,1,2,NEW,NEW,,,,,,,,
,,,,,,,,,,,,,,,,TestWords/TAI_SA_GI.wav,,60de493b30efe44c987e2d64,2021-08-01_21h35.17.931,Agingstudy,2020.2.10,Linux aarch64,60,,,,,,,,,,,,,,,,,C,,,,,,,,,,,,,,,2,1,0.9673,0,3,3,3,1,2,NEW,NEW,,,,,,,,
,,,,,,,,,,,,,,,,TestWords/HO_NAY_VA.wav,,60de493b30efe44c987e2d64,2021-08-01_21h35.17.931,Agingstudy,2020.2.10,Linux aarch64,60,,,,,,,,,,,,,,,,,C,,,,,,,,,,,,,,,2,1,0.7722,0,4,4,4,1,2,NEW,NEW,,,,,,,,
,,,,,,,,,,,,,,,,TestWords/KAI_LAY_TA.wav,,60de493b30efe44c987e2d64,2021-08-01_21h35.17.931,Agingstudy,2020.2.10,Linux aarch64,60,,,,,,,,,,,,,,,,,C,,,,,,,,,,,,,,,2,1,0.9676,0,5,5,5,1,2,NEW,NEW,,,,,,,,
,,,,,,,,,,,,,,,,TestWords/FI_GU_CHA.wav,,60de493b30efe44c987e2d64,2021-08-01_21h35.17.931,Agingstudy,2020.2.10,Linux aarch64,60,,,,,,,,,,,,,,,,,C,,,,,,,,,,,,,,,2,1,1.6571,0,6,6,6,1,2,NEW,NEW,,,,,,,,
,,,,,,,,,,,,,,,,TestWords/GI_SA_TAI.wav,,60de493b30efe44c987e2d64,2021-08-01_21h35.17.931,Agingstudy,2020.2.10,Linux aarch64,60,,,,,,,,,,,,,,,,,C,,,,,,,,,,,,,,,2,1,0.917,0,7,7,7,1,2,NEW,SIMILAR,,,,,,,,
,,,,,,,,,,,,,,,,TestWords/LU_HAI_BO.wav,,60de493b30efe44c987e2d64,2021-08-01_21h35.17.931,Agingstudy,2020.2.10,Linux aarch64,60,,,,,,,,,,,,,,,,,C,,,,,,,,,,,,,,,2,1,1.298,0,8,8,8,1,2,NEW,NEW,,,,,,,,
,,,,,,,,,,,,,,,,TestWords/KO_SU_FAI.wav,,60de493b30efe44c987e2d64,2021-08-01_21h35.17.931,Agingstudy,2020.2.10,Linux aarch64,60,,,,,,,,,,,,,,,,,C,,,,,,,,,,,,,,,1,1,1.5984,0,9,9,9,1,1,OLD,OLD,,,,,,,,
,,,,,,,,,,,,,,,,TestWords/DAI_RU_CHI.wav,,60de493b30efe44c987e2d64,2021-08-01_21h35.17.931,Agingstudy,2020.2.10,Linux aarch64,60,,,,,,,,,,,,,,,,,C,,,,,,,,,,,,,,,2,1,0.8715,0,10,10,10,1,2,NEW,NEW,,,,,,,,
,,,,,,,,,,,,,,,,TestWords/CHU_LA_PAY.wav,,60de493b30efe44c987e2d64,2021-08-01_21h35.17.931,Agingstudy,2020.2.10,Linux aarch64,60,,,,,,,,,,,,,,,,,C,,,,,,,,,,,,,,,2,1,2.7662,0,11,11,11,1,2,NEW,NEW,,,,,,,,
,,,,,,,,,,,,,,,,TestWords/KAI_LAY_TA.wav,,60de493b30efe44c987e2d64,2021-08-01_21h35.17.931,Agingstudy,2020.2.10,Linux aarch64,60,,,,,,,,,,,,,,,,,C,,,,,,,,,,,,,,,1,1,0.9742,0,12,12,12,1,1,OLD,OLD,,,,,,,,
,,,,,,,,,,,,,,,,TestWords/GI_TAI_SA.wav,,60de493b30efe44c987e2d64,2021-08-01_21h35.17.931,Agingstudy,2020.2.10,Linux aarch64,60,,,,,,,,,,,,,,,,,C,,,,,,,,,,,,,,,2,1,0.9858,0,13,13,13,1,2,NEW,SIMILAR,,,,,,,,
,,,,,,,,,,,,,,,,TestWords/DAY_PU_MO.wav,,60de493b30efe44c987e2d64,2021-08-01_21h35.17.931,Agingstudy,2020.2.10,Linux aarch64,60,,,,,,,,,,,,,,,,,C,,,,,,,,,,,,,,,1,0,2.2851,0,14,14,14,1,2,NEW,NEW,,,,,,,,
,,,,,,,,,,,,,,,,TestWords/KO_SU_FAI.wav,,60de493b30efe44c987e2d64,2021-08-01_21h35.17.931,Agingstudy,2020.2.10,Linux aarch64,60,,,,,,,,,,,,,,,,,C,,,,,,,,,,,,,,,1,1,1.5064,0,15,15,15,1,1,OLD,OLD,,,,,,,,
,,,,,,,,,,,,,,,,TestWords/SA_TAI_GI.wav,,60de493b30efe44c987e2d64,2021-08-01_21h35.17.931,Agingstudy,2020.2.10,Linux aarch64,60,,,,,,,,,,,,,,,,,C,,,,,,,,,,,,,,,1,0,1.6501,0,16,16,16,1,2,NEW,SIMILAR,,,,,,,,
,,,,,,,,,,,,,,,,TestWords/RAY_PA_TI.wav,,60de493b30efe44c987e2d64,2021-08-01_21h35.17.931,Agingstudy,2020.2.10,Linux aarch64,60,,,,,,,,,,,,,,,,,C,,,,,,,,,,,,,,,2,1,0.8905,0,17,17,17,1,2,NEW,NEW,,,,,,,,
,,,,,,,,,,,,,,,,TestWords/KAI_LAY_TA.wav,,60de493b30efe44c987e2d64,2021-08-01_21h35.17.931,Agingstudy,2020.2.10,Linux aarch64,60,,,,,,,,,,,,,,,,,C,,,,,,,,,,,,,,,1,1,1.2408,0,18,18,18,1,1,OLD,OLD,,,,,,,,
,,,,,,,,,,,,,,,,TestWords/DAY_MO_PU.wav,,60de493b30efe44c987e2d64,2021-08-01_21h35.17.931,Agingstudy,2020.2.10,Linux aarch64,60,,,,,,,,,,,,,,,,,C,,,,,,,,,,,,,,,1,0,1.6378,0,19,19,19,1,2,NEW,SIMILAR,,,,,,,,
,,,,,,,,,,,,,,,,TestWords/DAI_RU_CHI.wav,,60de493b30efe44c987e2d64,2021-08-01_21h35.17.931,Agingstudy,2020.2.10,Linux aarch64,60,,,,,,,,,,,,,,,,,C,,,,,,,,,,,,,,,2,0,2.1994,0,20,20,20,1,1,OLD,OLD,,,,,,,,
,,,,,,,,,,,,,,,,TestWords/SA_GI_TAI.wav,,60de493b30efe44c987e2d64,2021-08-01_21h35.17.931,Agingstudy,2020.2.10,Linux aarch64,60,,,,,,,,,,,,,,,,,C,,,,,,,,,,,,,,,1,0,1.3062,0,21,21,21,1,2,NEW,SIMILAR,,,,,,,,
,,,,,,,,,,,,,,,,TestWords/KO_SU_FAI.wav,,60de493b30efe44c987e2d64,2021-08-01_21h35.17.931,Agingstudy,2020.2.10,Linux aarch64,60,,,,,,,,,,,,,,,,,C,,,,,,,,,,,,,,,1,1,1.1521,0,22,22,22,1,1,OLD,OLD,,,,,,,,
,,,,,,,,,,,,,,,,TestWords/KAI_LAY_TA.wav,,60de493b30efe44c987e2d64,2021-08-01_21h35.17.931,Agingstudy,2020.2.10,Linux aarch64,60,,,,,,,,,,,,,,,,,C,,,,,,,,,,,,,,,2,0,1.4342,0,23,23,23,1,1,OLD,OLD,,,,,,,,
,,,,,,,,,,,,,,,,TestWords/RAY_PA_TI.wav,,60de493b30efe44c987e2d64,2021-08-01_21h35.17.931,Agingstudy,2020.2.10,Linux aarch64,60,,,,,,,,,,,,,,,,,C,,,,,,,,,,,,,,,1,1,1.7824,0,24,24,24,1,1,OLD,OLD,,,,,,,,
,,,,,,,,,,,,,,,,TestWords/MO_DAY_PU.wav,,60de493b30efe44c987e2d64,2021-08-01_21h35.17.931,Agingstudy,2020.2.10,Linux aarch64,60,,,,,,,,,,,,,,,,,C,,,,,,,,,,,,,,,2,1,2.4019,0,25,25,25,1,2,NEW,SIMILAR,,,,,,,,
,,,,,,,,,,,,,,,,TestWords/DAI_RU_CHI.wav,,60de493b30efe44c987e2d64,2021-08-01_21h35.17.931,Agingstudy,2020.2.10,Linux aarch64,60,,,,,,,,,,,,,,,,,C,,,,,,,,,,,,,,,1,1,2.4201,0,26,26,26,1,1,OLD,OLD,,,,,,,,
,,,,,,,,,,,,,,,,TestWords/TAI_GI_SA.wav,,60de493b30efe44c987e2d64,2021-08-01_21h35.17.931,Agingstudy,2020.2.10,Linux aarch64,60,,,,,,,,,,,,,,,,,C,,,,,,,,,,,,,,,1,0,1.9313,0,27,27,27,1,2,NEW,SIMILAR,,,,,,,,
,,,,,,,,,,,,,,,,TestWords/GA_MU_ZI.wav,,60de493b30efe44c987e2d64,2021-08-01_21h35.17.931,Agingstudy,2020.2.10,Linux aarch64,60,,,,,,,,,,,,,,,,,C,,,,,,,,,,,,,,,2,1,1.5884,0,28,28,28,1,2,NEW,NEW,,,,,,,,
,,,,,,,,,,,,,,,,TestWords/BA_KAY_LI.wav,,60de493b30efe44c987e2d64,2021-08-01_21h35.17.931,Agingstudy,2020.2.10,Linux aarch64,60,,,,,,,,,,,,,,,,,C,,,,,,,,,,,,,,,1,0,1.5651,0,29,29,29,1,2,NEW,NEW,,,,,,,,
,,,,,,,,,,,,,,,,TestWords/RAY_PA_TI.wav,,60de493b30efe44c987e2d64,2021-08-01_21h35.17.931,Agingstudy,2020.2.10,Linux aarch64,60,,,,,,,,,,,,,,,,,C,,,,,,,,,,,,,,,1,1,1.4854,0,30,30,30,1,1,OLD,OLD,,,,,,,,
,,,,,,,,,,,,,,,,TestWords/KO_SU_FAI.wav,,60de493b30efe44c987e2d64,2021-08-01_21h35.17.931,Agingstudy,2020.2.10,Linux aarch64,60,,,,,,,,,,,,,,,,,C,,,,,,,,,,,,,,,1,1,1.8505,0,31,31,31,1,1,OLD,OLD,,,,,,,,
,,,,,,,,,,,,,,,,TestWords/PU_DAY_MO.wav,,60de493b30efe44c987e2d64,2021-08-01_21h35.17.931,Agingstudy,2020.2.10,Linux aarch64,60,,,,,,,,,,,,,,,,,C,,,,,,,,,,,,,,,2,1,1.2717,0,32,32,32,1,2,NEW,SIMILAR,,,,,,,,
,,,,,,,,,,,,,,,,TestWords/KAI_LAY_TA.wav,,60de493b30efe44c987e2d64,2021-08-01_21h35.17.931,Agingstudy,2020.2.10,Linux aarch64,60,,,,,,,,,,,,,,,,,C,,,,,,,,,,,,,,,1,1,1.6007,0,33,33,33,1,1,OLD,OLD,,,,,,,,
,,,,,,,,,,,,,,,,TestWords/DAI_RU_CHI.wav,,60de493b30efe44c987e2d64,2021-08-01_21h35.17.931,Agingstudy,2020.2.10,Linux aarch64,60,,,,,,,,,,,,,,,,,C,,,,,,,,,,,,,,,1,1,1.341,0,34,34,34,1,1,OLD,OLD,,,,,,,,
,,,,,,,,,,,,,,,,TestWords/KAY_LI_BA.wav,,60de493b30efe44c987e2d64,2021-08-01_21h35.17.931,Agingstudy,2020.2.10,Linux aarch64,60,,,,,,,,,,,,,,,,,C,,,,,,,,,,,,,,,1,0,1.7219,0,35,35,35,1,2,NEW,SIMILAR,,,,,,,,
,,,,,,,,,,,,,,,,TestWords/GA_MU_ZI.wav,,60de493b30efe44c987e2d64,2021-08-01_21h35.17.931,Agingstudy,2020.2.10,Linux aarch64,60,,,,,,,,,,,,,,,,,C,,,,,,,,,,,,,,,1,1,1.6158,0,36,36,36,1,1,OLD,OLD,,,,,,,,
,,,,,,,,,,,,,,,,TestWords/RAY_PA_TI.wav,,60de493b30efe44c987e2d64,2021-08-01_21h35.17.931,Agingstudy,2020.2.10,Linux aarch64,60,,,,,,,,,,,,,,,,,C,,,,,,,,,,,,,,,1,1,1.1522,0,37,37,37,1,1,OLD,OLD,,,,,,,,
,,,,,,,,,,,,,,,,TestWords/PU_MO_DAY.wav,,60de493b30efe44c987e2d64,2021-08-01_21h35.17.931,Agingstudy,2020.2.10,Linux aarch64,60,,,,,,,,,,,,,,,,,C,,,,,,,,,,,,,,,2,1,2.1873,0,38,38,38,1,2,NEW,SIMILAR,,,,,,,,
,,,,,,,,,,,,,,,,TestWords/VAI_HO_LA.wav,,60de493b30efe44c987e2d64,2021-08-01_21h35.17.931,Agingstudy,2020.2.10,Linux aarch64,60,,,,,,,,,,,,,,,,,C,,,,,,,,,,,,,,,2,1,1.2418,0,39,39,39,1,2,NEW,NEW,,,,,,,,
,,,,,,,,,,,,,,,,TestWords/KAI_LAY_TA.wav,,60de493b30efe44c987e2d64,2021-08-01_21h35.17.931,Agingstudy,2020.2.10,Linux aarch64,60,,,,,,,,,,,,,,,,,C,,,,,,,,,,,,,,,1,1,1.1257,0,40,40,40,1,1,OLD,OLD,,,,,,,,
,,,,,,,,,,,,,,,,TestWords/KO_SU_FAI.wav,,60de493b30efe44c987e2d64,2021-08-01_21h35.17.931,Agingstudy,2020.2.10,Linux aarch64,60,,,,,,,,,,,,,,,,,C,,,,,,,,,,,,,,,1,1,1.866,0,41,41,41,1,1,OLD,OLD,,,,,,,,
,,,,,,,,,,,,,,,,TestWords/DAI_RU_CHI.wav,,60de493b30efe44c987e2d64,2021-08-01_21h35.17.931,Agingstudy,2020.2.10,Linux aarch64,60,,,,,,,,,,,,,,,,,C,,,,,,,,,,,,,,,1,1,1.4987,0,42,42,42,1,1,OLD,OLD,,,,,,,,
,,,,,,,,,,,,,,,,TestWords/WAI_VU_NA.wav,,60de493b30efe44c987e2d64,2021-08-01_21h35.17.931,Agingstudy,2020.2.10,Linux aarch64,60,,,,,,,,,,,,,,,,,C,,,,,,,,,,,,,,,2,1,1.1746,0,43,43,43,1,2,NEW,NEW,,,,,,,,
,,,,,,,,,,,,,,,,TestWords/GA_MU_ZI.wav,,60de493b30efe44c987e2d64,2021-08-01_21h35.17.931,Agingstudy,2020.2.10,Linux aarch64,60,,,,,,,,,,,,,,,,,C,,,,,,,,,,,,,,,1,1,2.1248,0,44,44,44,1,1,OLD,OLD,,,,,,,,
,,,,,,,,,,,,,,,,TestWords/KAY_BA_LI.wav,,60de493b30efe44c987e2d64,2021-08-01_21h35.17.931,Agingstudy,2020.2.10,Linux aarch64,60,,,,,,,,,,,,,,,,,C,,,,,,,,,,,,,,,1,0,1.3028,0,45,45,45,1,2,NEW,SIMILAR,,,,,,,,
,,,,,,,,,,,,,,,,TestWords/MO_PU_DAY.wav,,60de493b30efe44c987e2d64,2021-08-01_21h35.17.931,Agingstudy,2020.2.10,Linux aarch64,60,,,,,,,,,,,,,,,,,C,,,,,,,,,,,,,,,1,0,1.3216,0,46,46,46,1,2,NEW,SIMILAR,,,,,,,,
,,,,,,,,,,,,,,,,TestWords/RAY_PA_TI.wav,,60de493b30efe44c987e2d64,2021-08-01_21h35.17.931,Agingstudy,2020.2.10,Linux aarch64,60,,,,,,,,,,,,,,,,,C,,,,,,,,,,,,,,,1,1,1.279,0,47,47,47,1,1,OLD,OLD,,,,,,,,
,,,,,,,,,,,,,,,,TestWords/KAI_LAY_TA.wav,,60de493b30efe44c987e2d64,2021-08-01_21h35.17.931,Agingstudy,2020.2.10,Linux aarch64,60,,,,,,,,,,,,,,,,,C,,,,,,,,,,,,,,,1,1,1.3878,0,48,48,48,1,1,OLD,OLD,,,,,,,,
,,,,,,,,,,,,,,,,TestWords/WAI_NA_VU.wav,,60de493b30efe44c987e2d64,2021-08-01_21h35.17.931,Agingstudy,2020.2.10,Linux aarch64,60,,,,,,,,,,,,,,,,,C,,,,,,,,,,,,,,,1,0,1.2363,0,49,49,49,1,2,NEW,SIMILAR,,,,,,,,
,,,,,,,,,,,,,,,,TestWords/KO_SU_FAI.wav,,60de493b30efe44c987e2d64,2021-08-01_21h35.17.931,Agingstudy,2020.2.10,Linux aarch64,60,,,,,,,,,,,,,,,,,C,,,,,,,,,,,,,,,2,0,2.2663,0,50,50,50,1,1,OLD,OLD,,,,,,,,
,,,,,,,,,,,,,,,,TestWords/GA_MU_ZI.wav,,60de493b30efe44c987e2d64,2021-08-01_21h35.17.931,Agingstudy,2020.2.10,Linux aarch64,60,,,,,,,,,,,,,,,,,C,,,,,,,,,,,,,,,1,1,1.2547,0,51,51,51,1,1,OLD,OLD,,,,,,,,
,,,,,,,,,,,,,,,,TestWords/NU_CHAY_SO.wav,,60de493b30efe44c987e2d64,2021-08-01_21h35.17.931,Agingstudy,2020.2.10,Linux aarch64,60,,,,,,,,,,,,,,,,,C,,,,,,,,,,,,,,,2,1,1.651,0,52,52,52,1,2,NEW,NEW,,,,,,,,
,,,,,,,,,,,,,,,,TestWords/DAI_RU_CHI.wav,,60de493b30efe44c987e2d64,2021-08-01_21h35.17.931,Agingstudy,2020.2.10,Linux aarch64,60,,,,,,,,,,,,,,,,,C,,,,,,,,,,,,,,,1,1,0.962,0,53,53,53,1,1,OLD,OLD,,,,,,,,
,,,,,,,,,,,,,,,,TestWords/VU_NA_WAI.wav,,60de493b30efe44c987e2d64,2021-08-01_21h35.17.931,Agingstudy,2020.2.10,Linux aarch64,60,,,,,,,,,,,,,,,,,C,,,,,,,,,,,,,,,2,1,3.1799,0,54,54,54,1,2,NEW,SIMILAR,,,,,,,,
,,,,,,,,,,,,,,,,TestWords/RAY_PA_TI.wav,,60de493b30efe44c987e2d64,2021-08-01_21h35.17.931,Agingstudy,2020.2.10,Linux aarch64,60,,,,,,,,,,,,,,,,,C,,,,,,,,,,,,,,,1,1,0.9411,0,55,55,55,1,1,OLD,OLD,,,,,,,,
,,,,,,,,,,,,,,,,TestWords/KAI_LAY_TA.wav,,60de493b30efe44c987e2d64,2021-08-01_21h35.17.931,Agingstudy,2020.2.10,Linux aarch64,60,,,,,,,,,,,,,,,,,C,,,,,,,,,,,,,,,2,0,0.9046,0,56,56,56,1,1,OLD,OLD,,,,,,,,
,,,,,,,,,,,,,,,,TestWords/LI_BA_KAY.wav,,60de493b30efe44c987e2d64,2021-08-01_21h35.17.931,Agingstudy,2020.2.10,Linux aarch64,60,,,,,,,,,,,,,,,,,C,,,,,,,,,,,,,,,2,1,1.803,0,57,57,57,1,2,NEW,SIMILAR,,,,,,,,
,,,,,,,,,,,,,,,,TestWords/GA_MU_ZI.wav,,60de493b30efe44c987e2d64,2021-08-01_21h35.17.931,Agingstudy,2020.2.10,Linux aarch64,60,,,,,,,,,,,,,,,,,C,,,,,,,,,,,,,,,1,1,1.2566,0,58,58,58,1,1,OLD,OLD,,,,,,,,
,,,,,,,,,,,,,,,,TestWords/WAI_RO_JU.wav,,60de493b30efe44c987e2d64,2021-08-01_21h35.17.931,Agingstudy,2020.2.10,Linux aarch64,60,,,,,,,,,,,,,,,,,C,,,,,,,,,,,,,,,2,1,1.6343,0,59,59,59,1,2,NEW,NEW,,,,,,,,
,,,,,,,,,,,,,,,,TestWords/KO_SU_FAI.wav,,60de493b30efe44c987e2d64,2021-08-01_21h35.17.931,Agingstudy,2020.2.10,Linux aarch64,60,,,,,,,,,,,,,,,,,C,,,,,,,,,,,,,,,1,1,1.8077,0,60,60,60,1,1,OLD,OLD,,,,,,,,
,,,,,,,,,,,,,,,,TestWords/DAI_RU_CHI.wav,,60de493b30efe44c987e2d64,2021-08-01_21h35.17.931,Agingstudy,2020.2.10,Linux aarch64,60,,,,,,,,,,,,,,,,,C,,,,,,,,,,,,,,,1,1,0.5736,0,61,61,61,1,1,OLD,OLD,,,,,,,,
,,,,,,,,,,,,,,,,TestWords/VU_WAI_NA.wav,,60de493b30efe44c987e2d64,2021-08-01_21h35.17.931,Agingstudy,2020.2.10,Linux aarch64,60,,,,,,,,,,,,,,,,,C,,,,,,,,,,,,,,,1,0,1.9241,0,62,62,62,1,2,NEW,SIMILAR,,,,,,,,
,,,,,,,,,,,,,,,,TestWords/RAY_PA_TI.wav,,60de493b30efe44c987e2d64,2021-08-01_21h35.17.931,Agingstudy,2020.2.10,Linux aarch64,60,,,,,,,,,,,,,,,,,C,,,,,,,,,,,,,,,1,1,0.9506,0,63,63,63,1,1,OLD,OLD,,,,,,,,
,,,,,,,,,,,,,,,,TestWords/KAI_LAY_TA.wav,,60de493b30efe44c987e2d64,2021-08-01_21h35.17.931,Agingstudy,2020.2.10,Linux aarch64,60,,,,,,,,,,,,,,,,,C,,,,,,,,,,,,,,,1,1,1.1842,0,64,64,64,1,1,OLD,OLD,,,,,,,,
,,,,,,,,,,,,,,,,TestWords/GA_MU_ZI.wav,,60de493b30efe44c987e2d64,2021-08-01_21h35.17.931,Agingstudy,2020.2.10,Linux aarch64,60,,,,,,,,,,,,,,,,,C,,,,,,,,,,,,,,,1,1,1.5224,0,65,65,65,1,1,OLD,OLD,,,,,,,,
,,,,,,,,,,,,,,,,TestWords/BA_LI_KAY.wav,,60de493b30efe44c987e2d64,2021-08-01_21h35.17.931,Agingstudy,2020.2.10,Linux aarch64,60,,,,,,,,,,,,,,,,,C,,,,,,,,,,,,,,,1,0,2.9991,0,66,66,66,1,2,NEW,SIMILAR,,,,,,,,
,,,,,,,,,,,,,,,,TestWords/NA_VU_WAI.wav,,60de493b30efe44c987e2d64,2021-08-01_21h35.17.931,Agingstudy,2020.2.10,Linux aarch64,60,,,,,,,,,,,,,,,,,C,,,,,,,,,,,,,,,1,0,1.5664,0,67,67,67,1,2,NEW,SIMILAR,,,,,,,,
,,,,,,,,,,,,,,,,TestWords/KO_SU_FAI.wav,,60de493b30efe44c987e2d64,2021-08-01_21h35.17.931,Agingstudy,2020.2.10,Linux aarch64,60,,,,,,,,,,,,,,,,,C,,,,,,,,,,,,,,,1,1,1.4346,0,68,68,68,1,1,OLD,OLD,,,,,,,,
,,,,,,,,,,,,,,,,TestWords/RAI_ZO_FU.wav,,60de493b30efe44c987e2d64,2021-08-01_21h35.17.931,Agingstudy,2020.2.10,Linux aarch64,60,,,,,,,,,,,,,,,,,C,,,,,,,,,,,,,,,2,1,1.3004,0,69,69,69,1,2,NEW,NEW,,,,,,,,
,,,,,,,,,,,,,,,,TestWords/DAI_RU_CHI.wav,,60de493b30efe44c987e2d64,2021-08-01_21h35.17.931,Agingstudy,2020.2.10,Linux aarch64,60,,,,,,,,,,,,,,,,,C,,,,,,,,,,,,,,,1,1,0.8925,0,70,70,70,1,1,OLD,OLD,,,,,,,,
,,,,,,,,,,,,,,,,TestWords/RAY_PA_TI.wav,,60de493b30efe44c987e2d64,2021-08-01_21h35.17.931,Agingstudy,2020.2.10,Linux aarch64,60,,,,,,,,,,,,,,,,,C,,,,,,,,,,,,,,,1,1,0.636,0,71,71,71,1,1,OLD,OLD,,,,,,,,
,,,,,,,,,,,,,,,,TestWords/LI_KAY_BA.wav,,60de493b30efe44c987e2d64,2021-08-01_21h35.17.931,Agingstudy,2020.2.10,Linux aarch64,60,,,,,,,,,,,,,,,,,C,,,,,,,,,,,,,,,1,0,15.1103,0,72,72,72,1,2,NEW,SIMILAR,,,,,,,,
,,,,,,,,,,,,,,,,TestWords/KAI_LAY_TA.wav,,60de493b30efe44c987e2d64,2021-08-01_21h35.17.931,Agingstudy,2020.2.10,Linux aarch64,60,,,,,,,,,,,,,,,,,C,,,,,,,,,,,,,,,1,1,2.0154,0,73,73,73,1,1,OLD,OLD,,,,,,,,
,,,,,,,,,,,,,,,,TestWords/GA_MU_ZI.wav,,60de493b30efe44c987e2d64,2021-08-01_21h35.17.931,Agingstudy,2020.2.10,Linux aarch64,60,,,,,,,,,,,,,,,,,C,,,,,,,,,,,,,,,1,1,1.7394,0,74,74,74,1,1,OLD,OLD,,,,,,,,
,,,,,,,,,,,,,,,,TestWords/NA_WAI_VU.wav,,60de493b30efe44c987e2d64,2021-08-01_21h35.17.931,Agingstudy,2020.2.10,Linux aarch64,60,,,,,,,,,,,,,,,,,C,,,,,,,,,,,,,,,1,0,2.9479,0,75,75,75,1,2,NEW,SIMILAR,,,,,,,,
,,,,,,,,,,,,,,,,TestWords/KO_SU_FAI.wav,,60de493b30efe44c987e2d64,2021-08-01_21h35.17.931,Agingstudy,2020.2.10,Linux aarch64,60,,,,,,,,,,,,,,,,,C,,,,,,,,,,,,,,,1,1,0.8667,0,76,76,76,1,1,OLD,OLD,,,,,,,,
,,,,,,,,,,,,,,,,TestWords/ZO_RAI_FU.wav,,60de493b30efe44c987e2d64,2021-08-01_21h35.17.931,Agingstudy,2020.2.10,Linux aarch64,60,,,,,,,,,,,,,,,,,C,,,,,,,,,,,,,,,1,0,3.4657,0,77,77,77,1,2,NEW,SIMILAR,,,,,,,,
,,,,,,,,,,,,,,,,TestWords/RAY_PA_TI.wav,,60de493b30efe44c987e2d64,2021-08-01_21h35.17.931,Agingstudy,2020.2.10,Linux aarch64,60,,,,,,,,,,,,,,,,,C,,,,,,,,,,,,,,,1,1,1.0161,0,78,78,78,1,1,OLD,OLD,,,,,,,,
,,,,,,,,,,,,,,,,TestWords/KAI_LAY_TA.wav,,60de493b30efe44c987e2d64,2021-08-01_21h35.17.931,Agingstudy,2020.2.10,Linux aarch64,60,,,,,,,,,,,,,,,,,C,,,,,,,,,,,,,,,1,1,1.6587,0,79,79,79,1,1,OLD,OLD,,,,,,,,
,,,,,,,,,,,,,,,,TestWords/GA_MU_ZI.wav,,60de493b30efe44c987e2d64,2021-08-01_21h35.17.931,Agingstudy,2020.2.10,Linux aarch64,60,,,,,,,,,,,,,,,,,C,,,,,,,,,,,,,,,1,1,0.8103,0,80,80,80,1,1,OLD,OLD,,,,,,,,
,,,,,,,,,,,,,,,,TestWords/DA_CHU_VAI.wav,,60de493b30efe44c987e2d64,2021-08-01_21h35.17.931,Agingstudy,2020.2.10,Linux aarch64,60,,,,,,,,,,,,,,,,,C,,,,,,,,,,,,,,,2,1,1.5883,0,81,81,81,1,2,NEW,NEW,,,,,,,,
,,,,,,,,,,,,,,,,TestWords/DAI_RU_CHI.wav,,60de493b30efe44c987e2d64,2021-08-01_21h35.17.931,Agingstudy,2020.2.10,Linux aarch64,60,,,,,,,,,,,,,,,,,C,,,,,,,,,,,,,,,1,1,0.4986,0,82,82,82,1,1,OLD,OLD,,,,,,,,
,,,,,,,,,,,,,,,,TestWords/FU_RAI_ZO.wav,,60de493b30efe44c987e2d64,2021-08-01_21h35.17.931,Agingstudy,2020.2.10,Linux aarch64,60,,,,,,,,,,,,,,,,,C,,,,,,,,,,,,,,,1,0,1.8658,0,83,83,83,1,2,NEW,SIMILAR,,,,,,,,
,,,,,,,,,,,,,,,,TestWords/KO_SU_FAI.wav,,60de493b30efe44c987e2d64,2021-08-01_21h35.17.931,Agingstudy,2020.2.10,Linux aarch64,60,,,,,,,,,,,,,,,,,C,,,,,,,,,,,,,,,1,1,1.4877,0,84,84,84,1,1,OLD,OLD,,,,,,,,
,,,,,,,,,,,,,,,,TestWords/RAY_PA_TI.wav,,60de493b30efe44c987e2d64,2021-08-01_21h35.17.931,Agingstudy,2020.2.10,Linux aarch64,60,,,,,,,,,,,,,,,,,C,,,,,,,,,,,,,,,1,1,1.0636,0,85,85,85,1,1,OLD,OLD,,,,,,,,
,,,,,,,,,,,,,,,,TestWords/DAI_RU_CHI.wav,,60de493b30efe44c987e2d64,2021-08-01_21h35.17.931,Agingstudy,2020.2.10,Linux aarch64,60,,,,,,,,,,,,,,,,,C,,,,,,,,,,,,,,,1,1,1.0367,0,86,86,86,1,1,OLD,OLD,,,,,,,,
,,,,,,,,,,,,,,,,TestWords/PAI_LU_WA.wav,,60de493b30efe44c987e2d64,2021-08-01_21h35.17.931,Agingstudy,2020.2.10,Linux aarch64,60,,,,,,,,,,,,,,,,,C,,,,,,,,,,,,,,,2,1,0.9112,0,87,87,87,1,2,NEW,NEW,,,,,,,,
,,,,,,,,,,,,,,,,TestWords/GA_MU_ZI.wav,,60de493b30efe44c987e2d64,2021-08-01_21h35.17.931,Agingstudy,2020.2.10,Linux aarch64,60,,,,,,,,,,,,,,,,,C,,,,,,,,,,,,,,,1,1,1.0431,0,88,88,88,1,1,OLD,OLD,,,,,,,,
,,,,,,,,,,,,,,,,TestWords/FU_ZO_RAI.wav,,60de493b30efe44c987e2d64,2021-08-01_21h35.17.931,Agingstudy,2020.2.10,Linux aarch64,60,,,,,,,,,,,,,,,,,C,,,,,,,,,,,,,,,1,0,2.2008,0,89,89,89,1,2,NEW,SIMILAR,,,,,,,,
,,,,,,,,,,,,,,,,TestWords/RAY_PA_TI.wav,,60de493b30efe44c987e2d64,2021-08-01_21h35.17.931,Agingstudy,2020.2.10,Linux aarch64,60,,,,,,,,,,,,,,,,,C,,,,,,,,,,,,,,,1,1,0.7547,0,90,90,90,1,1,OLD,OLD,,,,,,,,
,,,,,,,,,,,,,,,,TestWords/DAI_RU_CHI.wav,,60de493b30efe44c987e2d64,2021-08-01_21h35.17.931,Agingstudy,2020.2.10,Linux aarch64,60,,,,,,,,,,,,,,,,,C,,,,,,,,,,,,,,,1,1,0.6665,0,91,91,91,1,1,OLD,OLD,,,,,,,,
,,,,,,,,,,,,,,,,TestWords/LA_ZAY_CHAI.wav,,60de493b30efe44c987e2d64,2021-08-01_21h35.17.931,Agingstudy,2020.2.10,Linux aarch64,60,,,,,,,,,,,,,,,,,C,,,,,,,,,,,,,,,2,1,2.1482,0,92,92,92,1,2,NEW,NEW,,,,,,,,
,,,,,,,,,,,,,,,,TestWords/GA_MU_ZI.wav,,60de493b30efe44c987e2d64,2021-08-01_21h35.17.931,Agingstudy,2020.2.10,Linux aarch64,60,,,,,,,,,,,,,,,,,C,,,,,,,,,,,,,,,1,1,0.7334,0,93,93,93,1,1,OLD,OLD,,,,,,,,
,,,,,,,,,,,,,,,,TestWords/RAI_FU_ZO.wav,,60de493b30efe44c987e2d64,2021-08-01_21h35.17.931,Agingstudy,2020.2.10,Linux aarch64,60,,,,,,,,,,,,,,,,,C,,,,,,,,,,,,,,,1,0,0.8897,0,94,94,94,1,2,NEW,SIMILAR,,,,,,,,
,,,,,,,,,,,,,,,,TestWords/GU_CHAI_PI.wav,,60de493b30efe44c987e2d64,2021-08-01_21h35.17.931,Agingstudy,2020.2.10,Linux aarch64,60,,,,,,,,,,,,,,,,,C,,,,,,,,,,,,,,,2,1,2.1352,0,95,95,95,1,2,NEW,NEW,,,,,,,,
,,,,,,,,,,,,,,,,TestWords/HI_NAY_VA.wav,,60de493b30efe44c987e2d64,2021-08-01_21h35.17.931,Agingstudy,2020.2.10,Linux aarch64,60,,,,,,,,,,,,,,,,,C,,,,,,,,,,,,,,,2,1,1.0412,0,96,96,96,1,2,NEW,NEW,,,,,,,,
,,,,,,,,,,,,,,,,TestWords/GA_MU_ZI.wav,,60de493b30efe44c987e2d64,2021-08-01_21h35.17.931,Agingstudy,2020.2.10,Linux aarch64,60,,,,,,,,,,,,,,,,,C,,,,,,,,,,,,,,,1,1,0.5174,0,97,97,97,1,1,OLD,OLD,,,,,,,,
,,,,,,,,,,,,,,,,TestWords/SI_VAI_CHU.wav,,60de493b30efe44c987e2d64,2021-08-01_21h35.17.931,Agingstudy,2020.2.10,Linux aarch64,60,,,,,,,,,,,,,,,,,C,,,,,,,,,,,,,,,2,1,2.816,0,98,98,98,1,2,NEW,NEW,,,,,,,,
,,,,,,,,,,,,,,,,TestWords/ZO_FU_RAI.wav,,60de493b30efe44c987e2d64,2021-08-01_21h35.17.931,Agingstudy,2020.2.10,Linux aarch64,60,,,,,,,,,,,,,,,,,C,,,,,,,,,,,,,,,1,0,0.5523,0,99,99,99,1,2,NEW,SIMILAR,,,,,,,,
,,,,,,,,,,,,,,,,,,60de493b30efe44c987e2d64,2021-08-01_21h35.17.931,Agingstudy,2020.2.10,Linux aarch64,60,,,,,,,,,,,,,,,,,,,,,,,,,,,,,,,,,,,,,,,,,,,0,0,0,0,1,,,
,,,,,,,,,,,,,,,,,,60de493b30efe44c987e2d64,2021-08-01_21h35.17.931,Agingstudy,2020.2.10,Linux aarch64,60,,,,,,,,,,,,,,,,,,,,,,,,,,,,,,,,,,,,,,,,,,,,,,,,return,13.4094,
