Welcome0Continue.keys,Welcome0Continue.rt,SoundCheckBegin.keys,SoundCheckBegin.rt,SoundCheckEndKey.keys,SoundCheckEndKey.rt,HeadphoneContinueKey.keys,HeadphoneContinueKey.rt,CheckResp.keys,CheckResp.corr,CheckResp.rt,HeadphoneLoop.thisRepN,HeadphoneLoop.thisTrialN,HeadphoneLoop.thisN,HeadphoneLoop.thisIndex,HeadphoneLoop.ran,File,Correct,participant,date,expName,psychopyVersion,OS,frameRate,ContinueKey8.keys,ContinueKey8.rt,MSTWelcomeContKey.keys,MSTWelcomeContKey.rt,Condition,MSTTrainIntroKey.keys,MSTTrainIntroKey.rt,MSTTrainKeys.keys,MSTTrainKeys.corr,MSTTrainKeys.rt,MSTTrainLoop.thisRepN,MSTTrainLoop.thisTrialN,MSTTrainLoop.thisN,MSTTrainLoop.thisIndex,MSTTrainLoop.ran,SoundFile,Type,MSTTestBeginKey.keys,MSTTestBeginKey.rt,MST_resp.keys,MST_resp.corr,MST_resp.rt,MSTPlayLoop.thisRepN,MSTPlayLoop.thisTrialN,MSTPlayLoop.thisN,MSTPlayLoop.thisIndex,MSTPlayLoop.ran,WordCorrect,Correct_type,WordType,MSTLoop.thisRepN,MSTLoop.thisTrialN,MSTLoop.thisN,MSTLoop.thisIndex,MSTLoop.ran,EndAllKey.keys,EndAllKey.rt,FeedbackResp.text
space,11.4483,space,9.6765,space,4.3962,space,164.8393,2,1,5.3574,0,0,0,3,1,Headphone/t2_2.wav,2,60e17e785a456ce59619ce64,2021-07-19_22h24.17.754,Agingstudy,2020.2.10,Win32,60,,,,,,,,,,,,,,,,,,,,,,,,,,,,,,,,,,,,,,
,,,,,,,,3,1,0.6629,0,1,1,4,1,Headphone/t3_1.wav,3,60e17e785a456ce59619ce64,2021-07-19_22h24.17.754,Agingstudy,2020.2.10,Win32,60,,,,,,,,,,,,,,,,,,,,,,,,,,,,,,,,,,,,,,
,,,,,,,,1,1,0.8738,0,2,2,1,1,Headphone/t1_2.wav,1,60e17e785a456ce59619ce64,2021-07-19_22h24.17.754,Agingstudy,2020.2.10,Win32,60,,,,,,,,,,,,,,,,,,,,,,,,,,,,,,,,,,,,,,
,,,,,,,,1,1,0.3772,0,3,3,0,1,Headphone/t1_1.wav,1,60e17e785a456ce59619ce64,2021-07-19_22h24.17.754,Agingstudy,2020.2.10,Win32,60,,,,,,,,,,,,,,,,,,,,,,,,,,,,,,,,,,,,,,
,,,,,,,,3,1,0.4419,0,4,4,5,1,Headphone/t3_2.wav,3,60e17e785a456ce59619ce64,2021-07-19_22h24.17.754,Agingstudy,2020.2.10,Win32,60,,,,,,,,,,,,,,,,,,,,,,,,,,,,,,,,,,,,,,
,,,,,,,,2,1,0.4271,0,5,5,2,1,Headphone/t2_1.wav,2,60e17e785a456ce59619ce64,2021-07-19_22h24.17.754,Agingstudy,2020.2.10,Win32,60,,,,,,,,,,,,,,,,,,,,,,,,,,,,,,,,,,,,,,
,,,,,,,,,,,,,,,,,2,60e17e785a456ce59619ce64,2021-07-19_22h24.17.754,Agingstudy,2020.2.10,Win32,60,space,18.9539,space,10.5253,1,space,4.5,2,1,8.1646,0,0,0,0,1,Training/FO_YI_LAY.wav,NEW,,,,,,,,,,,,,,,,,,,,,
,,,,,,,,,,,,,,,,,1,60e17e785a456ce59619ce64,2021-07-19_22h24.17.754,Agingstudy,2020.2.10,Win32,60,,,,,,,,1,1,3.3974,0,1,1,1,1,Training/FO_YI_LAY.wav,OLD,,,,,,,,,,,,,,,,,,,,,
,,,,,,,,,,,,,,,,,2,60e17e785a456ce59619ce64,2021-07-19_22h24.17.754,Agingstudy,2020.2.10,Win32,60,,,,,,,,2,1,1.5801,0,2,2,2,1,Training/YO_BU_JAY.wav,NEW,,,,,,,,,,,,,,,,,,,,,
,,,,,,,,,,,,,,,,,2,60e17e785a456ce59619ce64,2021-07-19_22h24.17.754,Agingstudy,2020.2.10,Win32,60,,,,,,,,2,1,4.6637,0,3,3,3,1,Training/JAY_YO_BU.wav,SIMILAR,,,,,,,,,,,,,,,,,,,,,
,,,,,,,,,,,,,,,,,1,60e17e785a456ce59619ce64,2021-07-19_22h24.17.754,Agingstudy,2020.2.10,Win32,60,,,,,,,,1,1,1.2691,0,4,4,4,1,Training/FO_YI_LAY.wav,OLD,,,,,,,,,,,,,,,,,,,,,
,,,,,,,,,,,,,,,,TestWords/HA_SI_JAI.wav,,60e17e785a456ce59619ce64,2021-07-19_22h24.17.754,Agingstudy,2020.2.10,Win32,60,,,,,A,,,,,,,,,,,,,space,2.3135,2,1,2.2809,0,0,0,0,1,2,NEW,NEW,,,,,,,,
,,,,,,,,,,,,,,,,TestWords/KO_SU_FAI.wav,,60e17e785a456ce59619ce64,2021-07-19_22h24.17.754,Agingstudy,2020.2.10,Win32,60,,,,,A,,,,,,,,,,,,,,,2,1,1.4169,0,1,1,1,1,2,NEW,NEW,,,,,,,,
,,,,,,,,,,,,,,,,TestWords/TAI_GI_SA.wav,,60e17e785a456ce59619ce64,2021-07-19_22h24.17.754,Agingstudy,2020.2.10,Win32,60,,,,,A,,,,,,,,,,,,,,,2,1,1.0867,0,2,2,2,1,2,NEW,NEW,,,,,,,,
,,,,,,,,,,,,,,,,TestWords/KAI_LAY_TA.wav,,60e17e785a456ce59619ce64,2021-07-19_22h24.17.754,Agingstudy,2020.2.10,Win32,60,,,,,A,,,,,,,,,,,,,,,2,1,0.2847,0,3,3,3,1,2,NEW,NEW,,,,,,,,
,,,,,,,,,,,,,,,,TestWords/RAY_PA_TI.wav,,60e17e785a456ce59619ce64,2021-07-19_22h24.17.754,Agingstudy,2020.2.10,Win32,60,,,,,A,,,,,,,,,,,,,,,2,1,0.4296,0,4,4,4,1,2,NEW,NEW,,,,,,,,
,,,,,,,,,,,,,,,,TestWords/KO_SU_FAI.wav,,60e17e785a456ce59619ce64,2021-07-19_22h24.17.754,Agingstudy,2020.2.10,Win32,60,,,,,A,,,,,,,,,,,,,,,2,0,0.5836,0,5,5,5,1,1,OLD,OLD,,,,,,,,
,,,,,,,,,,,,,,,,TestWords/TAI_SA_GI.wav,,60e17e785a456ce59619ce64,2021-07-19_22h24.17.754,Agingstudy,2020.2.10,Win32,60,,,,,A,,,,,,,,,,,,,,,2,1,0.8905,0,6,6,6,1,2,NEW,SIMILAR,,,,,,,,
,,,,,,,,,,,,,,,,TestWords/KAI_LAY_TA.wav,,60e17e785a456ce59619ce64,2021-07-19_22h24.17.754,Agingstudy,2020.2.10,Win32,60,,,,,A,,,,,,,,,,,,,,,1,1,0.4143,0,7,7,7,1,1,OLD,OLD,,,,,,,,
,,,,,,,,,,,,,,,,TestWords/NA_WAI_VU.wav,,60e17e785a456ce59619ce64,2021-07-19_22h24.17.754,Agingstudy,2020.2.10,Win32,60,,,,,A,,,,,,,,,,,,,,,2,1,0.6028,0,8,8,8,1,2,NEW,NEW,,,,,,,,
,,,,,,,,,,,,,,,,TestWords/KO_SU_FAI.wav,,60e17e785a456ce59619ce64,2021-07-19_22h24.17.754,Agingstudy,2020.2.10,Win32,60,,,,,A,,,,,,,,,,,,,,,2,0,1.0179,0,9,9,9,1,1,OLD,OLD,,,,,,,,
,,,,,,,,,,,,,,,,TestWords/RAY_PA_TI.wav,,60e17e785a456ce59619ce64,2021-07-19_22h24.17.754,Agingstudy,2020.2.10,Win32,60,,,,,A,,,,,,,,,,,,,,,1,1,0.4169,0,10,10,10,1,1,OLD,OLD,,,,,,,,
,,,,,,,,,,,,,,,,TestWords/GI_SA_TAI.wav,,60e17e785a456ce59619ce64,2021-07-19_22h24.17.754,Agingstudy,2020.2.10,Win32,60,,,,,A,,,,,,,,,,,,,,,2,1,0.3726,0,11,11,11,1,2,NEW,SIMILAR,,,,,,,,
,,,,,,,,,,,,,,,,TestWords/WAI_VU_NA.wav,,60e17e785a456ce59619ce64,2021-07-19_22h24.17.754,Agingstudy,2020.2.10,Win32,60,,,,,A,,,,,,,,,,,,,,,2,1,0.2736,0,12,12,12,1,2,NEW,SIMILAR,,,,,,,,
,,,,,,,,,,,,,,,,TestWords/KAI_LAY_TA.wav,,60e17e785a456ce59619ce64,2021-07-19_22h24.17.754,Agingstudy,2020.2.10,Win32,60,,,,,A,,,,,,,,,,,,,,,1,1,0.3175,0,13,13,13,1,1,OLD,OLD,,,,,,,,
,,,,,,,,,,,,,,,,TestWords/SI_VAI_CHU.wav,,60e17e785a456ce59619ce64,2021-07-19_22h24.17.754,Agingstudy,2020.2.10,Win32,60,,,,,A,,,,,,,,,,,,,,,2,1,0.7823,0,14,14,14,1,2,NEW,NEW,,,,,,,,
,,,,,,,,,,,,,,,,TestWords/GI_TAI_SA.wav,,60e17e785a456ce59619ce64,2021-07-19_22h24.17.754,Agingstudy,2020.2.10,Win32,60,,,,,A,,,,,,,,,,,,,,,2,1,0.3587,0,15,15,15,1,2,NEW,SIMILAR,,,,,,,,
,,,,,,,,,,,,,,,,TestWords/KO_SU_FAI.wav,,60e17e785a456ce59619ce64,2021-07-19_22h24.17.754,Agingstudy,2020.2.10,Win32,60,,,,,A,,,,,,,,,,,,,,,2,0,0.233,0,16,16,16,1,1,OLD,OLD,,,,,,,,
,,,,,,,,,,,,,,,,TestWords/DA_CHU_VAI.wav,,60e17e785a456ce59619ce64,2021-07-19_22h24.17.754,Agingstudy,2020.2.10,Win32,60,,,,,A,,,,,,,,,,,,,,,2,1,0.7502,0,17,17,17,1,2,NEW,NEW,,,,,,,,
,,,,,,,,,,,,,,,,TestWords/RAY_PA_TI.wav,,60e17e785a456ce59619ce64,2021-07-19_22h24.17.754,Agingstudy,2020.2.10,Win32,60,,,,,A,,,,,,,,,,,,,,,2,0,0.3364,0,18,18,18,1,1,OLD,OLD,,,,,,,,
,,,,,,,,,,,,,,,,TestWords/KAI_LAY_TA.wav,,60e17e785a456ce59619ce64,2021-07-19_22h24.17.754,Agingstudy,2020.2.10,Win32,60,,,,,A,,,,,,,,,,,,,,,1,1,0.217,0,19,19,19,1,1,OLD,OLD,,,,,,,,
,,,,,,,,,,,,,,,,TestWords/WAI_NA_VU.wav,,60e17e785a456ce59619ce64,2021-07-19_22h24.17.754,Agingstudy,2020.2.10,Win32,60,,,,,A,,,,,,,,,,,,,,,2,1,0.3645,0,20,20,20,1,2,NEW,SIMILAR,,,,,,,,
,,,,,,,,,,,,,,,,TestWords/KO_SU_FAI.wav,,60e17e785a456ce59619ce64,2021-07-19_22h24.17.754,Agingstudy,2020.2.10,Win32,60,,,,,A,,,,,,,,,,,,,,,1,1,0.2669,0,21,21,21,1,1,OLD,OLD,,,,,,,,
,,,,,,,,,,,,,,,,TestWords/SA_TAI_GI.wav,,60e17e785a456ce59619ce64,2021-07-19_22h24.17.754,Agingstudy,2020.2.10,Win32,60,,,,,A,,,,,,,,,,,,,,,2,1,0.6868,0,22,22,22,1,2,NEW,SIMILAR,,,,,,,,
,,,,,,,,,,,,,,,,TestWords/RAY_PA_TI.wav,,60e17e785a456ce59619ce64,2021-07-19_22h24.17.754,Agingstudy,2020.2.10,Win32,60,,,,,A,,,,,,,,,,,,,,,1,1,0.7946,0,23,23,23,1,1,OLD,OLD,,,,,,,,
,,,,,,,,,,,,,,,,TestWords/VU_NA_WAI.wav,,60e17e785a456ce59619ce64,2021-07-19_22h24.17.754,Agingstudy,2020.2.10,Win32,60,,,,,A,,,,,,,,,,,,,,,2,1,0.0831,0,24,24,24,1,2,NEW,SIMILAR,,,,,,,,
,,,,,,,,,,,,,,,,TestWords/KAI_LAY_TA.wav,,60e17e785a456ce59619ce64,2021-07-19_22h24.17.754,Agingstudy,2020.2.10,Win32,60,,,,,A,,,,,,,,,,,,,,,1,1,0.0342,0,25,25,25,1,1,OLD,OLD,,,,,,,,
,,,,,,,,,,,,,,,,TestWords/WAI_RO_JU.wav,,60e17e785a456ce59619ce64,2021-07-19_22h24.17.754,Agingstudy,2020.2.10,Win32,60,,,,,A,,,,,,,,,,,,,,,2,1,0.3494,0,26,26,26,1,2,NEW,NEW,,,,,,,,
,,,,,,,,,,,,,,,,TestWords/KO_SU_FAI.wav,,60e17e785a456ce59619ce64,2021-07-19_22h24.17.754,Agingstudy,2020.2.10,Win32,60,,,,,A,,,,,,,,,,,,,,,1,1,0.9167,0,27,27,27,1,1,OLD,OLD,,,,,,,,
,,,,,,,,,,,,,,,,TestWords/SA_GI_TAI.wav,,60e17e785a456ce59619ce64,2021-07-19_22h24.17.754,Agingstudy,2020.2.10,Win32,60,,,,,A,,,,,,,,,,,,,,,1,0,1.0426,0,28,28,28,1,2,NEW,SIMILAR,,,,,,,,
,,,,,,,,,,,,,,,,TestWords/RAY_PA_TI.wav,,60e17e785a456ce59619ce64,2021-07-19_22h24.17.754,Agingstudy,2020.2.10,Win32,60,,,,,A,,,,,,,,,,,,,,,1,1,0.2999,0,29,29,29,1,1,OLD,OLD,,,,,,,,
,,,,,,,,,,,,,,,,TestWords/GA_MU_ZI.wav,,60e17e785a456ce59619ce64,2021-07-19_22h24.17.754,Agingstudy,2020.2.10,Win32,60,,,,,A,,,,,,,,,,,,,,,2,1,0.4875,0,30,30,30,1,2,NEW,NEW,,,,,,,,
,,,,,,,,,,,,,,,,TestWords/KAI_LAY_TA.wav,,60e17e785a456ce59619ce64,2021-07-19_22h24.17.754,Agingstudy,2020.2.10,Win32,60,,,,,A,,,,,,,,,,,,,,,1,1,0.0252,0,31,31,31,1,1,OLD,OLD,,,,,,,,
,,,,,,,,,,,,,,,,TestWords/VU_WAI_NA.wav,,60e17e785a456ce59619ce64,2021-07-19_22h24.17.754,Agingstudy,2020.2.10,Win32,60,,,,,A,,,,,,,,,,,,,,,2,1,0.931,0,32,32,32,1,2,NEW,SIMILAR,,,,,,,,
,,,,,,,,,,,,,,,,TestWords/RAY_PA_TI.wav,,60e17e785a456ce59619ce64,2021-07-19_22h24.17.754,Agingstudy,2020.2.10,Win32,60,,,,,A,,,,,,,,,,,,,,,1,1,0.8618,0,33,33,33,1,1,OLD,OLD,,,,,,,,
,,,,,,,,,,,,,,,,TestWords/LI_KAY_BA.wav,,60e17e785a456ce59619ce64,2021-07-19_22h24.17.754,Agingstudy,2020.2.10,Win32,60,,,,,A,,,,,,,,,,,,,,,1,0,0.0267,0,34,34,34,1,2,NEW,NEW,,,,,,,,
,,,,,,,,,,,,,,,,TestWords/HI_NAY_VA.wav,,60e17e785a456ce59619ce64,2021-07-19_22h24.17.754,Agingstudy,2020.2.10,Win32,60,,,,,A,,,,,,,,,,,,,,,2,1,0.5056,0,35,35,35,1,2,NEW,NEW,,,,,,,,
,,,,,,,,,,,,,,,,TestWords/KO_SU_FAI.wav,,60e17e785a456ce59619ce64,2021-07-19_22h24.17.754,Agingstudy,2020.2.10,Win32,60,,,,,A,,,,,,,,,,,,,,,1,1,0.1555,0,36,36,36,1,1,OLD,OLD,,,,,,,,
,,,,,,,,,,,,,,,,TestWords/NA_VU_WAI.wav,,60e17e785a456ce59619ce64,2021-07-19_22h24.17.754,Agingstudy,2020.2.10,Win32,60,,,,,A,,,,,,,,,,,,,,,2,1,1.6523,0,37,37,37,1,2,NEW,SIMILAR,,,,,,,,
,,,,,,,,,,,,,,,,TestWords/GA_MU_ZI.wav,,60e17e785a456ce59619ce64,2021-07-19_22h24.17.754,Agingstudy,2020.2.10,Win32,60,,,,,A,,,,,,,,,,,,,,,2,0,0.3957,0,38,38,38,1,1,OLD,OLD,,,,,,,,
,,,,,,,,,,,,,,,,TestWords/KAI_LAY_TA.wav,,60e17e785a456ce59619ce64,2021-07-19_22h24.17.754,Agingstudy,2020.2.10,Win32,60,,,,,A,,,,,,,,,,,,,,,1,1,0.0696,0,39,39,39,1,1,OLD,OLD,,,,,,,,
,,,,,,,,,,,,,,,,TestWords/DAI_RU_CHI.wav,,60e17e785a456ce59619ce64,2021-07-19_22h24.17.754,Agingstudy,2020.2.10,Win32,60,,,,,A,,,,,,,,,,,,,,,2,1,0.8761,0,40,40,40,1,2,NEW,NEW,,,,,,,,
,,,,,,,,,,,,,,,,TestWords/NU_CHAY_SO.wav,,60e17e785a456ce59619ce64,2021-07-19_22h24.17.754,Agingstudy,2020.2.10,Win32,60,,,,,A,,,,,,,,,,,,,,,2,1,0.1495,0,41,41,41,1,2,NEW,NEW,,,,,,,,
,,,,,,,,,,,,,,,,TestWords/RAY_PA_TI.wav,,60e17e785a456ce59619ce64,2021-07-19_22h24.17.754,Agingstudy,2020.2.10,Win32,60,,,,,A,,,,,,,,,,,,,,,2,0,0.0266,0,42,42,42,1,1,OLD,OLD,,,,,,,,
,,,,,,,,,,,,,,,,TestWords/BA_KAY_LI.wav,,60e17e785a456ce59619ce64,2021-07-19_22h24.17.754,Agingstudy,2020.2.10,Win32,60,,,,,A,,,,,,,,,,,,,,,2,1,1.2042,0,43,43,43,1,2,NEW,SIMILAR,,,,,,,,
,,,,,,,,,,,,,,,,TestWords/KO_SU_FAI.wav,,60e17e785a456ce59619ce64,2021-07-19_22h24.17.754,Agingstudy,2020.2.10,Win32,60,,,,,A,,,,,,,,,,,,,,,1,1,0.2092,0,44,44,44,1,1,OLD,OLD,,,,,,,,
,,,,,,,,,,,,,,,,TestWords/GA_MU_ZI.wav,,60e17e785a456ce59619ce64,2021-07-19_22h24.17.754,Agingstudy,2020.2.10,Win32,60,,,,,A,,,,,,,,,,,,,,,2,0,0.2511,0,45,45,45,1,1,OLD,OLD,,,,,,,,
,,,,,,,,,,,,,,,,TestWords/CHU_LA_PAY.wav,,60e17e785a456ce59619ce64,2021-07-19_22h24.17.754,Agingstudy,2020.2.10,Win32,60,,,,,A,,,,,,,,,,,,,,,2,1,0.6723,0,46,46,46,1,2,NEW,NEW,,,,,,,,
,,,,,,,,,,,,,,,,TestWords/KAI_LAY_TA.wav,,60e17e785a456ce59619ce64,2021-07-19_22h24.17.754,Agingstudy,2020.2.10,Win32,60,,,,,A,,,,,,,,,,,,,,,1,1,0.816,0,47,47,47,1,1,OLD,OLD,,,,,,,,
,,,,,,,,,,,,,,,,TestWords/DAI_RU_CHI.wav,,60e17e785a456ce59619ce64,2021-07-19_22h24.17.754,Agingstudy,2020.2.10,Win32,60,,,,,A,,,,,,,,,,,,,,,2,0,0.4866,0,48,48,48,1,1,OLD,OLD,,,,,,,,
,,,,,,,,,,,,,,,,TestWords/KO_SU_FAI.wav,,60e17e785a456ce59619ce64,2021-07-19_22h24.17.754,Agingstudy,2020.2.10,Win32,60,,,,,A,,,,,,,,,,,,,,,1,1,1.5115,0,49,49,49,1,1,OLD,OLD,,,,,,,,
,,,,,,,,,,,,,,,,TestWords/KAY_LI_BA.wav,,60e17e785a456ce59619ce64,2021-07-19_22h24.17.754,Agingstudy,2020.2.10,Win32,60,,,,,A,,,,,,,,,,,,,,,1,0,0.0513,0,50,50,50,1,2,NEW,SIMILAR,,,,,,,,
,,,,,,,,,,,,,,,,TestWords/RAY_PA_TI.wav,,60e17e785a456ce59619ce64,2021-07-19_22h24.17.754,Agingstudy,2020.2.10,Win32,60,,,,,A,,,,,,,,,,,,,,,1,1,0.0188,0,51,51,51,1,1,OLD,OLD,,,,,,,,
,,,,,,,,,,,,,,,,TestWords/KAI_LAY_TA.wav,,60e17e785a456ce59619ce64,2021-07-19_22h24.17.754,Agingstudy,2020.2.10,Win32,60,,,,,A,,,,,,,,,,,,,,,1,1,0.5636,0,52,52,52,1,1,OLD,OLD,,,,,,,,
,,,,,,,,,,,,,,,,TestWords/HO_NAY_VA.wav,,60e17e785a456ce59619ce64,2021-07-19_22h24.17.754,Agingstudy,2020.2.10,Win32,60,,,,,A,,,,,,,,,,,,,,,2,1,0.9502,0,53,53,53,1,2,NEW,NEW,,,,,,,,
,,,,,,,,,,,,,,,,TestWords/GA_MU_ZI.wav,,60e17e785a456ce59619ce64,2021-07-19_22h24.17.754,Agingstudy,2020.2.10,Win32,60,,,,,A,,,,,,,,,,,,,,,2,0,1.0666,0,54,54,54,1,1,OLD,OLD,,,,,,,,
,,,,,,,,,,,,,,,,TestWords/DAI_RU_CHI.wav,,60e17e785a456ce59619ce64,2021-07-19_22h24.17.754,Agingstudy,2020.2.10,Win32,60,,,,,A,,,,,,,,,,,,,,,2,0,0.2066,0,55,55,55,1,1,OLD,OLD,,,,,,,,
,,,,,,,,,,,,,,,,TestWords/MO_PU_DAY.wav,,60e17e785a456ce59619ce64,2021-07-19_22h24.17.754,Agingstudy,2020.2.10,Win32,60,,,,,A,,,,,,,,,,,,,,,2,1,0.7242,0,56,56,56,1,2,NEW,NEW,,,,,,,,
,,,,,,,,,,,,,,,,TestWords/KO_SU_FAI.wav,,60e17e785a456ce59619ce64,2021-07-19_22h24.17.754,Agingstudy,2020.2.10,Win32,60,,,,,A,,,,,,,,,,,,,,,1,1,1.865,0,57,57,57,1,1,OLD,OLD,,,,,,,,
,,,,,,,,,,,,,,,,TestWords/KAY_BA_LI.wav,,60e17e785a456ce59619ce64,2021-07-19_22h24.17.754,Agingstudy,2020.2.10,Win32,60,,,,,A,,,,,,,,,,,,,,,2,1,0.4621,0,58,58,58,1,2,NEW,SIMILAR,,,,,,,,
,,,,,,,,,,,,,,,,TestWords/RAY_PA_TI.wav,,60e17e785a456ce59619ce64,2021-07-19_22h24.17.754,Agingstudy,2020.2.10,Win32,60,,,,,A,,,,,,,,,,,,,,,1,1,0.1681,0,59,59,59,1,1,OLD,OLD,,,,,,,,
,,,,,,,,,,,,,,,,TestWords/KAI_LAY_TA.wav,,60e17e785a456ce59619ce64,2021-07-19_22h24.17.754,Agingstudy,2020.2.10,Win32,60,,,,,A,,,,,,,,,,,,,,,1,1,5.7102,0,60,60,60,1,1,OLD,OLD,,,,,,,,
,,,,,,,,,,,,,,,,TestWords/GA_MU_ZI.wav,,60e17e785a456ce59619ce64,2021-07-19_22h24.17.754,Agingstudy,2020.2.10,Win32,60,,,,,A,,,,,,,,,,,,,,,1,1,0.6767,0,61,61,61,1,1,OLD,OLD,,,,,,,,
,,,,,,,,,,,,,,,,TestWords/DAY_PU_MO.wav,,60e17e785a456ce59619ce64,2021-07-19_22h24.17.754,Agingstudy,2020.2.10,Win32,60,,,,,A,,,,,,,,,,,,,,,2,1,0.3779,0,62,62,62,1,2,NEW,SIMILAR,,,,,,,,
,,,,,,,,,,,,,,,,TestWords/DAI_RU_CHI.wav,,60e17e785a456ce59619ce64,2021-07-19_22h24.17.754,Agingstudy,2020.2.10,Win32,60,,,,,A,,,,,,,,,,,,,,,2,0,0.8935,0,63,63,63,1,1,OLD,OLD,,,,,,,,
,,,,,,,,,,,,,,,,TestWords/LI_BA_KAY.wav,,60e17e785a456ce59619ce64,2021-07-19_22h24.17.754,Agingstudy,2020.2.10,Win32,60,,,,,A,,,,,,,,,,,,,,,2,1,0.0509,0,64,64,64,1,2,NEW,SIMILAR,,,,,,,,
,,,,,,,,,,,,,,,,TestWords/KAI_LAY_TA.wav,,60e17e785a456ce59619ce64,2021-07-19_22h24.17.754,Agingstudy,2020.2.10,Win32,60,,,,,A,,,,,,,,,,,,,,,1,1,0.5454,0,65,65,65,1,1,OLD,OLD,,,,,,,,
,,,,,,,,,,,,,,,,TestWords/KO_SU_FAI.wav,,60e17e785a456ce59619ce64,2021-07-19_22h24.17.754,Agingstudy,2020.2.10,Win32,60,,,,,A,,,,,,,,,,,,,,,1,1,0.8872,0,66,66,66,1,1,OLD,OLD,,,,,,,,
,,,,,,,,,,,,,,,,TestWords/DAY_MO_PU.wav,,60e17e785a456ce59619ce64,2021-07-19_22h24.17.754,Agingstudy,2020.2.10,Win32,60,,,,,A,,,,,,,,,,,,,,,2,1,1.0265,0,67,67,67,1,2,NEW,SIMILAR,,,,,,,,
,,,,,,,,,,,,,,,,TestWords/RAY_PA_TI.wav,,60e17e785a456ce59619ce64,2021-07-19_22h24.17.754,Agingstudy,2020.2.10,Win32,60,,,,,A,,,,,,,,,,,,,,,1,1,0.4511,0,68,68,68,1,1,OLD,OLD,,,,,,,,
,,,,,,,,,,,,,,,,TestWords/GA_MU_ZI.wav,,60e17e785a456ce59619ce64,2021-07-19_22h24.17.754,Agingstudy,2020.2.10,Win32,60,,,,,A,,,,,,,,,,,,,,,1,1,0.2552,0,69,69,69,1,1,OLD,OLD,,,,,,,,
,,,,,,,,,,,,,,,,TestWords/BA_LI_KAY.wav,,60e17e785a456ce59619ce64,2021-07-19_22h24.17.754,Agingstudy,2020.2.10,Win32,60,,,,,A,,,,,,,,,,,,,,,2,1,0.3181,0,70,70,70,1,2,NEW,SIMILAR,,,,,,,,
,,,,,,,,,,,,,,,,TestWords/DAI_RU_CHI.wav,,60e17e785a456ce59619ce64,2021-07-19_22h24.17.754,Agingstudy,2020.2.10,Win32,60,,,,,A,,,,,,,,,,,,,,,1,1,0.1521,0,71,71,71,1,1,OLD,OLD,,,,,,,,
,,,,,,,,,,,,,,,,TestWords/LU_HAI_BO.wav,,60e17e785a456ce59619ce64,2021-07-19_22h24.17.754,Agingstudy,2020.2.10,Win32,60,,,,,A,,,,,,,,,,,,,,,2,1,2.4756,0,72,72,72,1,2,NEW,NEW,,,,,,,,
,,,,,,,,,,,,,,,,TestWords/RAY_PA_TI.wav,,60e17e785a456ce59619ce64,2021-07-19_22h24.17.754,Agingstudy,2020.2.10,Win32,60,,,,,A,,,,,,,,,,,,,,,1,1,0.8422,0,73,73,73,1,1,OLD,OLD,,,,,,,,
,,,,,,,,,,,,,,,,TestWords/GA_MU_ZI.wav,,60e17e785a456ce59619ce64,2021-07-19_22h24.17.754,Agingstudy,2020.2.10,Win32,60,,,,,A,,,,,,,,,,,,,,,1,1,1.7986,0,74,74,74,1,1,OLD,OLD,,,,,,,,
,,,,,,,,,,,,,,,,TestWords/MO_DAY_PU.wav,,60e17e785a456ce59619ce64,2021-07-19_22h24.17.754,Agingstudy,2020.2.10,Win32,60,,,,,A,,,,,,,,,,,,,,,1,0,0.1968,0,75,75,75,1,2,NEW,SIMILAR,,,,,,,,
,,,,,,,,,,,,,,,,TestWords/DAI_RU_CHI.wav,,60e17e785a456ce59619ce64,2021-07-19_22h24.17.754,Agingstudy,2020.2.10,Win32,60,,,,,A,,,,,,,,,,,,,,,1,1,0.7358,0,76,76,76,1,1,OLD,OLD,,,,,,,,
,,,,,,,,,,,,,,,,TestWords/ZO_FU_RAI.wav,,60e17e785a456ce59619ce64,2021-07-19_22h24.17.754,Agingstudy,2020.2.10,Win32,60,,,,,A,,,,,,,,,,,,,,,2,1,2.7656,0,77,77,77,1,2,NEW,NEW,,,,,,,,
,,,,,,,,,,,,,,,,TestWords/NO_WA_BAY.wav,,60e17e785a456ce59619ce64,2021-07-19_22h24.17.754,Agingstudy,2020.2.10,Win32,60,,,,,A,,,,,,,,,,,,,,,2,1,0.3021,0,78,78,78,1,2,NEW,NEW,,,,,,,,
,,,,,,,,,,,,,,,,TestWords/GA_MU_ZI.wav,,60e17e785a456ce59619ce64,2021-07-19_22h24.17.754,Agingstudy,2020.2.10,Win32,60,,,,,A,,,,,,,,,,,,,,,2,0,0.3726,0,79,79,79,1,1,OLD,OLD,,,,,,,,
,,,,,,,,,,,,,,,,TestWords/DAI_RU_CHI.wav,,60e17e785a456ce59619ce64,2021-07-19_22h24.17.754,Agingstudy,2020.2.10,Win32,60,,,,,A,,,,,,,,,,,,,,,2,0,0.0061,0,80,80,80,1,1,OLD,OLD,,,,,,,,
,,,,,,,,,,,,,,,,TestWords/PU_DAY_MO.wav,,60e17e785a456ce59619ce64,2021-07-19_22h24.17.754,Agingstudy,2020.2.10,Win32,60,,,,,A,,,,,,,,,,,,,,,1,0,0.6006,0,81,81,81,1,2,NEW,SIMILAR,,,,,,,,
,,,,,,,,,,,,,,,,TestWords/RAI_ZO_FU.wav,,60e17e785a456ce59619ce64,2021-07-19_22h24.17.754,Agingstudy,2020.2.10,Win32,60,,,,,A,,,,,,,,,,,,,,,2,1,0.1434,0,82,82,82,1,2,NEW,SIMILAR,,,,,,,,
,,,,,,,,,,,,,,,,TestWords/GA_MU_ZI.wav,,60e17e785a456ce59619ce64,2021-07-19_22h24.17.754,Agingstudy,2020.2.10,Win32,60,,,,,A,,,,,,,,,,,,,,,2,0,0.2188,0,83,83,83,1,1,OLD,OLD,,,,,,,,
,,,,,,,,,,,,,,,,TestWords/PAI_LU_WA.wav,,60e17e785a456ce59619ce64,2021-07-19_22h24.17.754,Agingstudy,2020.2.10,Win32,60,,,,,A,,,,,,,,,,,,,,,2,1,0.2668,0,84,84,84,1,2,NEW,NEW,,,,,,,,
,,,,,,,,,,,,,,,,TestWords/PU_MO_DAY.wav,,60e17e785a456ce59619ce64,2021-07-19_22h24.17.754,Agingstudy,2020.2.10,Win32,60,,,,,A,,,,,,,,,,,,,,,2,1,0.1923,0,85,85,85,1,2,NEW,SIMILAR,,,,,,,,
,,,,,,,,,,,,,,,,TestWords/DAI_RU_CHI.wav,,60e17e785a456ce59619ce64,2021-07-19_22h24.17.754,Agingstudy,2020.2.10,Win32,60,,,,,A,,,,,,,,,,,,,,,1,1,0.3509,0,86,86,86,1,1,OLD,OLD,,,,,,,,
,,,,,,,,,,,,,,,,TestWords/ZO_RAI_FU.wav,,60e17e785a456ce59619ce64,2021-07-19_22h24.17.754,Agingstudy,2020.2.10,Win32,60,,,,,A,,,,,,,,,,,,,,,2,1,6.5601,0,87,87,87,1,2,NEW,SIMILAR,,,,,,,,
,,,,,,,,,,,,,,,,TestWords/FI_GU_CHA.wav,,60e17e785a456ce59619ce64,2021-07-19_22h24.17.754,Agingstudy,2020.2.10,Win32,60,,,,,A,,,,,,,,,,,,,,,1,0,0.6662,0,88,88,88,1,2,NEW,NEW,,,,,,,,
,,,,,,,,,,,,,,,,TestWords/GA_MU_ZI.wav,,60e17e785a456ce59619ce64,2021-07-19_22h24.17.754,Agingstudy,2020.2.10,Win32,60,,,,,A,,,,,,,,,,,,,,,1,1,0.3586,0,89,89,89,1,1,OLD,OLD,,,,,,,,
,,,,,,,,,,,,,,,,TestWords/DAI_RU_CHI.wav,,60e17e785a456ce59619ce64,2021-07-19_22h24.17.754,Agingstudy,2020.2.10,Win32,60,,,,,A,,,,,,,,,,,,,,,1,1,0.5851,0,90,90,90,1,1,OLD,OLD,,,,,,,,
,,,,,,,,,,,,,,,,TestWords/FU_RAI_ZO.wav,,60e17e785a456ce59619ce64,2021-07-19_22h24.17.754,Agingstudy,2020.2.10,Win32,60,,,,,A,,,,,,,,,,,,,,,2,1,1.4824,0,91,91,91,1,2,NEW,SIMILAR,,,,,,,,
,,,,,,,,,,,,,,,,TestWords/GU_CHAI_PI.wav,,60e17e785a456ce59619ce64,2021-07-19_22h24.17.754,Agingstudy,2020.2.10,Win32,60,,,,,A,,,,,,,,,,,,,,,1,0,0.5015,0,92,92,92,1,2,NEW,NEW,,,,,,,,
,,,,,,,,,,,,,,,,TestWords/GA_MU_ZI.wav,,60e17e785a456ce59619ce64,2021-07-19_22h24.17.754,Agingstudy,2020.2.10,Win32,60,,,,,A,,,,,,,,,,,,,,,2,0,3.2488,0,93,93,93,1,1,OLD,OLD,,,,,,,,
,,,,,,,,,,,,,,,,TestWords/DAI_RU_CHI.wav,,60e17e785a456ce59619ce64,2021-07-19_22h24.17.754,Agingstudy,2020.2.10,Win32,60,,,,,A,,,,,,,,,,,,,,,1,1,0.2888,0,94,94,94,1,1,OLD,OLD,,,,,,,,
,,,,,,,,,,,,,,,,TestWords/FU_ZO_RAI.wav,,60e17e785a456ce59619ce64,2021-07-19_22h24.17.754,Agingstudy,2020.2.10,Win32,60,,,,,A,,,,,,,,,,,,,,,1,0,1.4801,0,95,95,95,1,2,NEW,SIMILAR,,,,,,,,
,,,,,,,,,,,,,,,,TestWords/VAI_HO_LA.wav,,60e17e785a456ce59619ce64,2021-07-19_22h24.17.754,Agingstudy,2020.2.10,Win32,60,,,,,A,,,,,,,,,,,,,,,2,1,0.542,0,96,96,96,1,2,NEW,NEW,,,,,,,,
,,,,,,,,,,,,,,,,TestWords/DAI_RU_CHI.wav,,60e17e785a456ce59619ce64,2021-07-19_22h24.17.754,Agingstudy,2020.2.10,Win32,60,,,,,A,,,,,,,,,,,,,,,1,1,0.158,0,97,97,97,1,1,OLD,OLD,,,,,,,,
,,,,,,,,,,,,,,,,TestWords/LA_ZAY_CHAI.wav,,60e17e785a456ce59619ce64,2021-07-19_22h24.17.754,Agingstudy,2020.2.10,Win32,60,,,,,A,,,,,,,,,,,,,,,2,1,0.1322,0,98,98,98,1,2,NEW,NEW,,,,,,,,
,,,,,,,,,,,,,,,,TestWords/RAI_FU_ZO.wav,,60e17e785a456ce59619ce64,2021-07-19_22h24.17.754,Agingstudy,2020.2.10,Win32,60,,,,,A,,,,,,,,,,,,,,,2,1,0.6091,0,99,99,99,1,2,NEW,SIMILAR,,,,,,,,
,,,,,,,,,,,,,,,,,,60e17e785a456ce59619ce64,2021-07-19_22h24.17.754,Agingstudy,2020.2.10,Win32,60,,,,,,,,,,,,,,,,,,,,,,,,,,,,,,,0,0,0,0,1,,,
,,,,,,,,,,,,,,,,,,60e17e785a456ce59619ce64,2021-07-19_22h24.17.754,Agingstudy,2020.2.10,Win32,60,,,,,,,,,,,,,,,,,,,,,,,,,,,,,,,,,,,,return,35.6339,"No comment, good survey "
