Welcome0Continue.keys,Welcome0Continue.rt,SoundCheckBegin.keys,SoundCheckBegin.rt,SoundCheckEndKey.keys,SoundCheckEndKey.rt,HeadphoneContinueKey.keys,HeadphoneContinueKey.rt,CheckResp.keys,CheckResp.corr,CheckResp.rt,HeadphoneLoop.thisRepN,HeadphoneLoop.thisTrialN,HeadphoneLoop.thisN,HeadphoneLoop.thisIndex,HeadphoneLoop.ran,File,Correct,participant,date,expName,psychopyVersion,OS,frameRate,RepeatAgainKey.keys,RepeatAgainKey.rt,RepeatAgainLoop.thisRepN,RepeatAgainLoop.thisTrialN,RepeatAgainLoop.thisN,RepeatAgainLoop.thisIndex,RepeatAgainLoop.ran,Headphone_retest.thisRepN,Headphone_retest.thisTrialN,Headphone_retest.thisN,Headphone_retest.thisIndex,Headphone_retest.ran
space,12.416,space,6.1204,space,3.8048,space,15.0082,1,0,7.212,0,0,0,2,1,Headphone/t2_1.wav,2,60eebdc2c0d4c5289b45894b,2021-08-02_07h55.04.867,Agingstudy,2020.2.10,Win32,60,,,,,,,,,,,,
,,,,,,,,1,0,3.9605,0,1,1,4,1,Headphone/t3_1.wav,3,60eebdc2c0d4c5289b45894b,2021-08-02_07h55.04.867,Agingstudy,2020.2.10,Win32,60,,,,,,,,,,,,
,,,,,,,,1,0,2.5639,0,2,2,5,1,Headphone/t3_2.wav,3,60eebdc2c0d4c5289b45894b,2021-08-02_07h55.04.867,Agingstudy,2020.2.10,Win32,60,,,,,,,,,,,,
,,,,,,,,2,0,2.7502,0,3,3,1,1,Headphone/t1_2.wav,1,60eebdc2c0d4c5289b45894b,2021-08-02_07h55.04.867,Agingstudy,2020.2.10,Win32,60,,,,,,,,,,,,
,,,,,,,,3,0,4.9558,0,4,4,3,1,Headphone/t2_2.wav,2,60eebdc2c0d4c5289b45894b,2021-08-02_07h55.04.867,Agingstudy,2020.2.10,Win32,60,,,,,,,,,,,,
,,,,,,,,1,1,1.8384,0,5,5,0,1,Headphone/t1_1.wav,1,60eebdc2c0d4c5289b45894b,2021-08-02_07h55.04.867,Agingstudy,2020.2.10,Win32,60,,,,,,,,,,,,
,,,,,,,,,,,,,,,,,,60eebdc2c0d4c5289b45894b,2021-08-02_07h55.04.867,Agingstudy,2020.2.10,Win32,60,space,13.6138,0,0,0,0,1,,,,,
,,,,,,,,,,,,,,,,,,60eebdc2c0d4c5289b45894b,2021-08-02_07h55.04.867,Agingstudy,2020.2.10,Win32,60,,,,,,,,0,0,0,0,1
,,,,,,,,2,1,2.2118,0,0,0,2,1,Headphone/t2_1.wav,2,60eebdc2c0d4c5289b45894b,2021-08-02_07h55.04.867,Agingstudy,2020.2.10,Win32,60,,,,,,,,,,,,
,,,,,,,,2,0,2.2207,0,1,1,1,1,Headphone/t1_2.wav,1,60eebdc2c0d4c5289b45894b,2021-08-02_07h55.04.867,Agingstudy,2020.2.10,Win32,60,,,,,,,,,,,,
,,,,,,,,1,0,7.4722,0,2,2,5,1,Headphone/t3_2.wav,3,60eebdc2c0d4c5289b45894b,2021-08-02_07h55.04.867,Agingstudy,2020.2.10,Win32,60,,,,,,,,,,,,
,,,,,,,,2,1,3.6931,0,3,3,3,1,Headphone/t2_2.wav,2,60eebdc2c0d4c5289b45894b,2021-08-02_07h55.04.867,Agingstudy,2020.2.10,Win32,60,,,,,,,,,,,,
,,,,,,,,2,0,2.6894,0,4,4,4,1,Headphone/t3_1.wav,3,60eebdc2c0d4c5289b45894b,2021-08-02_07h55.04.867,Agingstudy,2020.2.10,Win32,60,,,,,,,,,,,,
,,,,,,,,1,1,1.2174,0,5,5,0,1,Headphone/t1_1.wav,1,60eebdc2c0d4c5289b45894b,2021-08-02_07h55.04.867,Agingstudy,2020.2.10,Win32,60,,,,,,,,,,,,
,,,,,,,,,,,,,,,,,,60eebdc2c0d4c5289b45894b,2021-08-02_07h55.04.867,Agingstudy,2020.2.10,Win32,60,space,81.3978,0,0,0,0,1,,,,,
,,,,,,,,,,,,,,,,,,60eebdc2c0d4c5289b45894b,2021-08-02_07h55.04.867,Agingstudy,2020.2.10,Win32,60,,,,,,,,1,0,1,0,1
,,,,,,,,3,0,1.8674,0,0,0,1,1,Headphone/t1_2.wav,1,60eebdc2c0d4c5289b45894b,2021-08-02_07h55.04.867,Agingstudy,2020.2.10,Win32,60,,,,,,,,,,,,
,,,,,,,,2,0,2.1273,0,1,1,4,1,Headphone/t3_1.wav,3,60eebdc2c0d4c5289b45894b,2021-08-02_07h55.04.867,Agingstudy,2020.2.10,Win32,60,,,,,,,,,,,,
,,,,,,,,3,0,1.0851,0,2,2,2,1,Headphone/t2_1.wav,2,60eebdc2c0d4c5289b45894b,2021-08-02_07h55.04.867,Agingstudy,2020.2.10,Win32,60,,,,,,,,,,,,
,,,,,,,,1,0,0.8422,0,3,3,3,1,Headphone/t2_2.wav,2,60eebdc2c0d4c5289b45894b,2021-08-02_07h55.04.867,Agingstudy,2020.2.10,Win32,60,,,,,,,,,,,,
,,,,,,,,3,0,0.6509,0,4,4,0,1,Headphone/t1_1.wav,1,60eebdc2c0d4c5289b45894b,2021-08-02_07h55.04.867,Agingstudy,2020.2.10,Win32,60,,,,,,,,,,,,
,,,,,,,,2,0,1.889,0,5,5,5,1,Headphone/t3_2.wav,3,60eebdc2c0d4c5289b45894b,2021-08-02_07h55.04.867,Agingstudy,2020.2.10,Win32,60,,,,,,,,,,,,
,,,,,,,,,,,,,,,,,,60eebdc2c0d4c5289b45894b,2021-08-02_07h55.04.867,Agingstudy,2020.2.10,Win32,60,space,9.3668,0,0,0,0,1,,,,,
,,,,,,,,,,,,,,,,,,60eebdc2c0d4c5289b45894b,2021-08-02_07h55.04.867,Agingstudy,2020.2.10,Win32,60,,,,,,,,2,0,2,0,1
,,,,,,,,3,0,0.9262,0,0,0,1,1,Headphone/t1_2.wav,1,60eebdc2c0d4c5289b45894b,2021-08-02_07h55.04.867,Agingstudy,2020.2.10,Win32,60,,,,,,,,,,,,
,,,,,,,,2,0,0.9395,0,1,1,0,1,Headphone/t1_1.wav,1,60eebdc2c0d4c5289b45894b,2021-08-02_07h55.04.867,Agingstudy,2020.2.10,Win32,60,,,,,,,,,,,,
,,,,,,,,1,0,1.8344,0,2,2,4,1,Headphone/t3_1.wav,3,60eebdc2c0d4c5289b45894b,2021-08-02_07h55.04.867,Agingstudy,2020.2.10,Win32,60,,,,,,,,,,,,
,,,,,,,,1,0,3.6877,0,3,3,3,1,Headphone/t2_2.wav,2,60eebdc2c0d4c5289b45894b,2021-08-02_07h55.04.867,Agingstudy,2020.2.10,Win32,60,,,,,,,,,,,,
,,,,,,,,3,0,0.8676,0,4,4,2,1,Headphone/t2_1.wav,2,60eebdc2c0d4c5289b45894b,2021-08-02_07h55.04.867,Agingstudy,2020.2.10,Win32,60,,,,,,,,,,,,
,,,,,,,,1,0,6.1175,0,5,5,5,1,Headphone/t3_2.wav,3,60eebdc2c0d4c5289b45894b,2021-08-02_07h55.04.867,Agingstudy,2020.2.10,Win32,60,,,,,,,,,,,,
,,,,,,,,,,,,,,,,,,60eebdc2c0d4c5289b45894b,2021-08-02_07h55.04.867,Agingstudy,2020.2.10,Win32,60,space,9.3143,0,0,0,0,1,,,,,
,,,,,,,,,,,,,,,,,,60eebdc2c0d4c5289b45894b,2021-08-02_07h55.04.867,Agingstudy,2020.2.10,Win32,60,,,,,,,,3,0,3,0,1
,,,,,,,,3,0,6.8181,0,0,0,2,1,Headphone/t2_1.wav,2,60eebdc2c0d4c5289b45894b,2021-08-02_07h55.04.867,Agingstudy,2020.2.10,Win32,60,,,,,,,,,,,,
,,,,,,,,1,0,1.0274,0,1,1,3,1,Headphone/t2_2.wav,2,60eebdc2c0d4c5289b45894b,2021-08-02_07h55.04.867,Agingstudy,2020.2.10,Win32,60,,,,,,,,,,,,
,,,,,,,,2,0,4.058,0,2,2,4,1,Headphone/t3_1.wav,3,60eebdc2c0d4c5289b45894b,2021-08-02_07h55.04.867,Agingstudy,2020.2.10,Win32,60,,,,,,,,,,,,
,,,,,,,,2,0,0.7341,0,3,3,5,1,Headphone/t3_2.wav,3,60eebdc2c0d4c5289b45894b,2021-08-02_07h55.04.867,Agingstudy,2020.2.10,Win32,60,,,,,,,,,,,,
,,,,,,,,2,0,1.7199,0,4,4,1,1,Headphone/t1_2.wav,1,60eebdc2c0d4c5289b45894b,2021-08-02_07h55.04.867,Agingstudy,2020.2.10,Win32,60,,,,,,,,,,,,
,,,,,,,,3,0,2.3868,0,5,5,0,1,Headphone/t1_1.wav,1,60eebdc2c0d4c5289b45894b,2021-08-02_07h55.04.867,Agingstudy,2020.2.10,Win32,60,,,,,,,,,,,,
,,,,,,,,,,,,,,,,,,60eebdc2c0d4c5289b45894b,2021-08-02_07h55.04.867,Agingstudy,2020.2.10,Win32,60,space,7.1928,0,0,0,0,1,,,,,
,,,,,,,,,,,,,,,,,,60eebdc2c0d4c5289b45894b,2021-08-02_07h55.04.867,Agingstudy,2020.2.10,Win32,60,,,,,,,,4,0,4,0,1
,,,,,,,,1,0,3.3845,0,0,0,2,1,Headphone/t2_1.wav,2,60eebdc2c0d4c5289b45894b,2021-08-02_07h55.04.867,Agingstudy,2020.2.10,Win32,60,,,,,,,,,,,,
,,,,,,,,2,0,2.218,0,1,1,0,1,Headphone/t1_1.wav,1,60eebdc2c0d4c5289b45894b,2021-08-02_07h55.04.867,Agingstudy,2020.2.10,Win32,60,,,,,,,,,,,,
,,,,,,,,1,0,5.2223,0,2,2,3,1,Headphone/t2_2.wav,2,60eebdc2c0d4c5289b45894b,2021-08-02_07h55.04.867,Agingstudy,2020.2.10,Win32,60,,,,,,,,,,,,
,,,,,,,,2,0,3.434,0,3,3,1,1,Headphone/t1_2.wav,1,60eebdc2c0d4c5289b45894b,2021-08-02_07h55.04.867,Agingstudy,2020.2.10,Win32,60,,,,,,,,,,,,
,,,,,,,,2,0,0.7828,0,4,4,4,1,Headphone/t3_1.wav,3,60eebdc2c0d4c5289b45894b,2021-08-02_07h55.04.867,Agingstudy,2020.2.10,Win32,60,,,,,,,,,,,,
,,,,,,,,1,0,4.4102,0,5,5,5,1,Headphone/t3_2.wav,3,60eebdc2c0d4c5289b45894b,2021-08-02_07h55.04.867,Agingstudy,2020.2.10,Win32,60,,,,,,,,,,,,
,,,,,,,,,,,,,,,,,,60eebdc2c0d4c5289b45894b,2021-08-02_07h55.04.867,Agingstudy,2020.2.10,Win32,60,space,8.1049,0,0,0,0,1,,,,,
,,,,,,,,,,,,,,,,,,60eebdc2c0d4c5289b45894b,2021-08-02_07h55.04.867,Agingstudy,2020.2.10,Win32,60,,,,,,,,5,0,5,0,1
,,,,,,,,2,0,2.6162,0,0,0,1,1,Headphone/t1_2.wav,1,60eebdc2c0d4c5289b45894b,2021-08-02_07h55.04.867,Agingstudy,2020.2.10,Win32,60,,,,,,,,,,,,
,,,,,,,,2,0,1.5353,0,1,1,0,1,Headphone/t1_1.wav,1,60eebdc2c0d4c5289b45894b,2021-08-02_07h55.04.867,Agingstudy,2020.2.10,Win32,60,,,,,,,,,,,,
,,,,,,,,1,0,2.6768,0,2,2,4,1,Headphone/t3_1.wav,3,60eebdc2c0d4c5289b45894b,2021-08-02_07h55.04.867,Agingstudy,2020.2.10,Win32,60,,,,,,,,,,,,
,,,,,,,,3,0,1.676,0,3,3,3,1,Headphone/t2_2.wav,2,60eebdc2c0d4c5289b45894b,2021-08-02_07h55.04.867,Agingstudy,2020.2.10,Win32,60,,,,,,,,,,,,
,,,,,,,,1,0,1.2741,0,4,4,2,1,Headphone/t2_1.wav,2,60eebdc2c0d4c5289b45894b,2021-08-02_07h55.04.867,Agingstudy,2020.2.10,Win32,60,,,,,,,,,,,,
,,,,,,,,2,0,4.701,0,5,5,5,1,Headphone/t3_2.wav,3,60eebdc2c0d4c5289b45894b,2021-08-02_07h55.04.867,Agingstudy,2020.2.10,Win32,60,,,,,,,,,,,,
,,,,,,,,,,,,,,,,,,60eebdc2c0d4c5289b45894b,2021-08-02_07h55.04.867,Agingstudy,2020.2.10,Win32,60,space,303.829,0,0,0,0,1,,,,,
,,,,,,,,,,,,,,,,,,60eebdc2c0d4c5289b45894b,2021-08-02_07h55.04.867,Agingstudy,2020.2.10,Win32,60,,,,,,,,6,0,6,0,1
,,,,,,,,3,0,1.083,0,0,0,2,1,Headphone/t2_1.wav,2,60eebdc2c0d4c5289b45894b,2021-08-02_07h55.04.867,Agingstudy,2020.2.10,Win32,60,,,,,,,,,,,,
,,,,,,,,3,0,2.4097,0,1,1,3,1,Headphone/t2_2.wav,2,60eebdc2c0d4c5289b45894b,2021-08-02_07h55.04.867,Agingstudy,2020.2.10,Win32,60,,,,,,,,,,,,
,,,,,,,,1,0,1.5402,0,2,2,5,1,Headphone/t3_2.wav,3,60eebdc2c0d4c5289b45894b,2021-08-02_07h55.04.867,Agingstudy,2020.2.10,Win32,60,,,,,,,,,,,,
,,,,,,,,3,0,2.8002,0,3,3,1,1,Headphone/t1_2.wav,1,60eebdc2c0d4c5289b45894b,2021-08-02_07h55.04.867,Agingstudy,2020.2.10,Win32,60,,,,,,,,,,,,
,,,,,,,,2,0,1.5183,0,4,4,0,1,Headphone/t1_1.wav,1,60eebdc2c0d4c5289b45894b,2021-08-02_07h55.04.867,Agingstudy,2020.2.10,Win32,60,,,,,,,,,,,,
,,,,,,,,1,0,1.9748,0,5,5,4,1,Headphone/t3_1.wav,3,60eebdc2c0d4c5289b45894b,2021-08-02_07h55.04.867,Agingstudy,2020.2.10,Win32,60,,,,,,,,,,,,
,,,,,,,,,,,,,,,,,,60eebdc2c0d4c5289b45894b,2021-08-02_07h55.04.867,Agingstudy,2020.2.10,Win32,60,space,9.1846,0,0,0,0,1,,,,,
,,,,,,,,,,,,,,,,,,60eebdc2c0d4c5289b45894b,2021-08-02_07h55.04.867,Agingstudy,2020.2.10,Win32,60,,,,,,,,7,0,7,0,1
,,,,,,,,1,0,4.2801,0,0,0,3,1,Headphone/t2_2.wav,2,60eebdc2c0d4c5289b45894b,2021-08-02_07h55.04.867,Agingstudy,2020.2.10,Win32,60,,,,,,,,,,,,
,,,,,,,,2,0,2.601,0,1,1,1,1,Headphone/t1_2.wav,1,60eebdc2c0d4c5289b45894b,2021-08-02_07h55.04.867,Agingstudy,2020.2.10,Win32,60,,,,,,,,,,,,
,,,,,,,,3,0,1.6386,0,2,2,2,1,Headphone/t2_1.wav,2,60eebdc2c0d4c5289b45894b,2021-08-02_07h55.04.867,Agingstudy,2020.2.10,Win32,60,,,,,,,,,,,,
,,,,,,,,1,0,1.4978,0,3,3,4,1,Headphone/t3_1.wav,3,60eebdc2c0d4c5289b45894b,2021-08-02_07h55.04.867,Agingstudy,2020.2.10,Win32,60,,,,,,,,,,,,
,,,,,,,,3,0,1.4059,0,4,4,0,1,Headphone/t1_1.wav,1,60eebdc2c0d4c5289b45894b,2021-08-02_07h55.04.867,Agingstudy,2020.2.10,Win32,60,,,,,,,,,,,,
,,,,,,,,1,0,2.9608,0,5,5,5,1,Headphone/t3_2.wav,3,60eebdc2c0d4c5289b45894b,2021-08-02_07h55.04.867,Agingstudy,2020.2.10,Win32,60,,,,,,,,,,,,
,,,,,,,,,,,,,,,,,,60eebdc2c0d4c5289b45894b,2021-08-02_07h55.04.867,Agingstudy,2020.2.10,Win32,60,space,11.9053,0,0,0,0,1,,,,,
,,,,,,,,,,,,,,,,,,60eebdc2c0d4c5289b45894b,2021-08-02_07h55.04.867,Agingstudy,2020.2.10,Win32,60,,,,,,,,8,0,8,0,1
,,,,,,,,2,0,7.6689,0,0,0,1,1,Headphone/t1_2.wav,1,60eebdc2c0d4c5289b45894b,2021-08-02_07h55.04.867,Agingstudy,2020.2.10,Win32,60,,,,,,,,,,,,
,,,,,,,,3,0,1.318,0,1,1,3,1,Headphone/t2_2.wav,2,60eebdc2c0d4c5289b45894b,2021-08-02_07h55.04.867,Agingstudy,2020.2.10,Win32,60,,,,,,,,,,,,
,,,,,,,,1,0,2.5528,0,2,2,4,1,Headphone/t3_1.wav,3,60eebdc2c0d4c5289b45894b,2021-08-02_07h55.04.867,Agingstudy,2020.2.10,Win32,60,,,,,,,,,,,,
,,,,,,,,3,0,2.1172,0,3,3,2,1,Headphone/t2_1.wav,2,60eebdc2c0d4c5289b45894b,2021-08-02_07h55.04.867,Agingstudy,2020.2.10,Win32,60,,,,,,,,,,,,
,,,,,,,,3,0,1.4175,0,4,4,0,1,Headphone/t1_1.wav,1,60eebdc2c0d4c5289b45894b,2021-08-02_07h55.04.867,Agingstudy,2020.2.10,Win32,60,,,,,,,,,,,,
,,,,,,,,2,0,1.7621,0,5,5,5,1,Headphone/t3_2.wav,3,60eebdc2c0d4c5289b45894b,2021-08-02_07h55.04.867,Agingstudy,2020.2.10,Win32,60,,,,,,,,,,,,
,,,,,,,,,,,,,,,,,,60eebdc2c0d4c5289b45894b,2021-08-02_07h55.04.867,Agingstudy,2020.2.10,Win32,60,space,10.3953,0,0,0,0,1,,,,,
,,,,,,,,,,,,,,,,,,60eebdc2c0d4c5289b45894b,2021-08-02_07h55.04.867,Agingstudy,2020.2.10,Win32,60,,,,,,,,9,0,9,0,1
,,,,,,,,2,0,3.5714,0,0,0,4,1,Headphone/t3_1.wav,3,60eebdc2c0d4c5289b45894b,2021-08-02_07h55.04.867,Agingstudy,2020.2.10,Win32,60,,,,,,,,,,,,
,,,,,,,,1,0,1.9671,0,1,1,3,1,Headphone/t2_2.wav,2,60eebdc2c0d4c5289b45894b,2021-08-02_07h55.04.867,Agingstudy,2020.2.10,Win32,60,,,,,,,,,,,,
,,,,,,,,2,0,2.5118,0,2,2,1,1,Headphone/t1_2.wav,1,60eebdc2c0d4c5289b45894b,2021-08-02_07h55.04.867,Agingstudy,2020.2.10,Win32,60,,,,,,,,,,,,
,,,,,,,,3,0,2.8217,0,3,3,0,1,Headphone/t1_1.wav,1,60eebdc2c0d4c5289b45894b,2021-08-02_07h55.04.867,Agingstudy,2020.2.10,Win32,60,,,,,,,,,,,,
,,,,,,,,3,0,1.7022,0,4,4,2,1,Headphone/t2_1.wav,2,60eebdc2c0d4c5289b45894b,2021-08-02_07h55.04.867,Agingstudy,2020.2.10,Win32,60,,,,,,,,,,,,
,,,,,,,,3,1,2.9248,0,5,5,5,1,Headphone/t3_2.wav,3,60eebdc2c0d4c5289b45894b,2021-08-02_07h55.04.867,Agingstudy,2020.2.10,Win32,60,,,,,,,,,,,,
,,,,,,,,,,,,,,,,,,60eebdc2c0d4c5289b45894b,2021-08-02_07h55.04.867,Agingstudy,2020.2.10,Win32,60,space,21.8181,0,0,0,0,1,,,,,
,,,,,,,,,,,,,,,,,,60eebdc2c0d4c5289b45894b,2021-08-02_07h55.04.867,Agingstudy,2020.2.10,Win32,60,,,,,,,,10,0,10,0,1
,,,,,,,,2,0,1.5106,0,0,0,4,1,Headphone/t3_1.wav,3,60eebdc2c0d4c5289b45894b,2021-08-02_07h55.04.867,Agingstudy,2020.2.10,Win32,60,,,,,,,,,,,,
,,,,,,,,2,0,3.2202,0,1,1,0,1,Headphone/t1_1.wav,1,60eebdc2c0d4c5289b45894b,2021-08-02_07h55.04.867,Agingstudy,2020.2.10,Win32,60,,,,,,,,,,,,
,,,,,,,,3,0,1.1673,0,2,2,3,1,Headphone/t2_2.wav,2,60eebdc2c0d4c5289b45894b,2021-08-02_07h55.04.867,Agingstudy,2020.2.10,Win32,60,,,,,,,,,,,,
,,,,,,,,2,0,5.9758,0,3,3,5,1,Headphone/t3_2.wav,3,60eebdc2c0d4c5289b45894b,2021-08-02_07h55.04.867,Agingstudy,2020.2.10,Win32,60,,,,,,,,,,,,
,,,,,,,,2,0,2.3032,0,4,4,1,1,Headphone/t1_2.wav,1,60eebdc2c0d4c5289b45894b,2021-08-02_07h55.04.867,Agingstudy,2020.2.10,Win32,60,,,,,,,,,,,,
,,,,,,,,1,0,2.721,0,5,5,2,1,Headphone/t2_1.wav,2,60eebdc2c0d4c5289b45894b,2021-08-02_07h55.04.867,Agingstudy,2020.2.10,Win32,60,,,,,,,,,,,,
,,,,,,,,,,,,,,,,,,60eebdc2c0d4c5289b45894b,2021-08-02_07h55.04.867,Agingstudy,2020.2.10,Win32,60,space,19.1863,0,0,0,0,1,,,,,
,,,,,,,,,,,,,,,,,,60eebdc2c0d4c5289b45894b,2021-08-02_07h55.04.867,Agingstudy,2020.2.10,Win32,60,,,,,,,,11,0,11,0,1
,,,,,,,,1,0,18.6354,0,0,0,3,1,Headphone/t2_2.wav,2,60eebdc2c0d4c5289b45894b,2021-08-02_07h55.04.867,Agingstudy,2020.2.10,Win32,60,,,,,,,,,,,,
,,,,,,,,3,0,0.8988,0,1,1,1,1,Headphone/t1_2.wav,1,60eebdc2c0d4c5289b45894b,2021-08-02_07h55.04.867,Agingstudy,2020.2.10,Win32,60,,,,,,,,,,,,
,,,,,,,,3,0,1.345,0,2,2,0,1,Headphone/t1_1.wav,1,60eebdc2c0d4c5289b45894b,2021-08-02_07h55.04.867,Agingstudy,2020.2.10,Win32,60,,,,,,,,,,,,
,,,,,,,,1,0,2.1727,0,3,3,5,1,Headphone/t3_2.wav,3,60eebdc2c0d4c5289b45894b,2021-08-02_07h55.04.867,Agingstudy,2020.2.10,Win32,60,,,,,,,,,,,,
,,,,,,,,1,0,1.7928,0,4,4,2,1,Headphone/t2_1.wav,2,60eebdc2c0d4c5289b45894b,2021-08-02_07h55.04.867,Agingstudy,2020.2.10,Win32,60,,,,,,,,,,,,
,,,,,,,,1,0,33.0241,0,5,5,4,1,Headphone/t3_1.wav,3,60eebdc2c0d4c5289b45894b,2021-08-02_07h55.04.867,Agingstudy,2020.2.10,Win32,60,,,,,,,,,,,,
