Welcome0Continue.keys,Welcome0Continue.rt,SoundCheckBegin.keys,SoundCheckBegin.rt,SoundCheckEndKey.keys,SoundCheckEndKey.rt,HeadphoneContinueKey.keys,HeadphoneContinueKey.rt,CheckResp.keys,CheckResp.corr,CheckResp.rt,HeadphoneLoop.thisRepN,HeadphoneLoop.thisTrialN,HeadphoneLoop.thisN,HeadphoneLoop.thisIndex,HeadphoneLoop.ran,File,Correct,participant,date,expName,psychopyVersion,OS,frameRate,ContinueKey8.keys,ContinueKey8.rt,MSTWelcomeContKey.keys,MSTWelcomeContKey.rt,Condition,MSTTrainIntroKey.keys,MSTTrainIntroKey.rt,MSTTrainKeys.keys,MSTTrainKeys.corr,MSTTrainKeys.rt,MSTTrainLoop.thisRepN,MSTTrainLoop.thisTrialN,MSTTrainLoop.thisN,MSTTrainLoop.thisIndex,MSTTrainLoop.ran,SoundFile,Type,MSTTestBeginKey.keys,MSTTestBeginKey.rt,MST_resp.keys,MST_resp.corr,MST_resp.rt,MSTPlayLoop.thisRepN,MSTPlayLoop.thisTrialN,MSTPlayLoop.thisN,MSTPlayLoop.thisIndex,MSTPlayLoop.ran,WordCorrect,Correct_type,WordType,MSTLoop.thisRepN,MSTLoop.thisTrialN,MSTLoop.thisN,MSTLoop.thisIndex,MSTLoop.ran,EndAllKey.keys,EndAllKey.rt,FeedbackResp.text
space,6.077,space,4.836,space,3.199,space,10.236,2,1,2.024,0,0,0,3,1,Headphone/t2_2.wav,2,60f68b570ae2316894fb0a51,2021-11-03_13h47.09.468,Agingstudy,2020.2.10,MacIntel,60,,,,,,,,,,,,,,,,,,,,,,,,,,,,,,,,,,,,,,
,,,,,,,,1,1,1.105,0,1,1,0,1,Headphone/t1_1.wav,1,60f68b570ae2316894fb0a51,2021-11-03_13h47.09.468,Agingstudy,2020.2.10,MacIntel,60,,,,,,,,,,,,,,,,,,,,,,,,,,,,,,,,,,,,,,
,,,,,,,,3,1,1.779,0,2,2,4,1,Headphone/t3_1.wav,3,60f68b570ae2316894fb0a51,2021-11-03_13h47.09.468,Agingstudy,2020.2.10,MacIntel,60,,,,,,,,,,,,,,,,,,,,,,,,,,,,,,,,,,,,,,
,,,,,,,,3,1,1.723,0,3,3,5,1,Headphone/t3_2.wav,3,60f68b570ae2316894fb0a51,2021-11-03_13h47.09.468,Agingstudy,2020.2.10,MacIntel,60,,,,,,,,,,,,,,,,,,,,,,,,,,,,,,,,,,,,,,
,,,,,,,,1,1,1.081,0,4,4,1,1,Headphone/t1_2.wav,1,60f68b570ae2316894fb0a51,2021-11-03_13h47.09.468,Agingstudy,2020.2.10,MacIntel,60,,,,,,,,,,,,,,,,,,,,,,,,,,,,,,,,,,,,,,
,,,,,,,,2,1,1.231,0,5,5,2,1,Headphone/t2_1.wav,2,60f68b570ae2316894fb0a51,2021-11-03_13h47.09.468,Agingstudy,2020.2.10,MacIntel,60,,,,,,,,,,,,,,,,,,,,,,,,,,,,,,,,,,,,,,
,,,,,,,,,,,,,,,,,2,60f68b570ae2316894fb0a51,2021-11-03_13h47.09.468,Agingstudy,2020.2.10,MacIntel,60,space,17.548,space,6.887,1,space,4.689,2,1,4.89,0,0,0,0,1,Training/FO_YI_LAY.wav,NEW,,,,,,,,,,,,,,,,,,,,,
,,,,,,,,,,,,,,,,,1,60f68b570ae2316894fb0a51,2021-11-03_13h47.09.468,Agingstudy,2020.2.10,MacIntel,60,,,,,,,,1,1,3.091,0,1,1,1,1,Training/FO_YI_LAY.wav,OLD,,,,,,,,,,,,,,,,,,,,,
,,,,,,,,,,,,,,,,,2,60f68b570ae2316894fb0a51,2021-11-03_13h47.09.468,Agingstudy,2020.2.10,MacIntel,60,,,,,,,,2,1,1.857,0,2,2,2,1,Training/YO_BU_JAY.wav,NEW,,,,,,,,,,,,,,,,,,,,,
,,,,,,,,,,,,,,,,,2,60f68b570ae2316894fb0a51,2021-11-03_13h47.09.468,Agingstudy,2020.2.10,MacIntel,60,,,,,,,,2,1,4.002,0,3,3,3,1,Training/JAY_YO_BU.wav,SIMILAR,,,,,,,,,,,,,,,,,,,,,
,,,,,,,,,,,,,,,,,1,60f68b570ae2316894fb0a51,2021-11-03_13h47.09.468,Agingstudy,2020.2.10,MacIntel,60,,,,,,,,1,1,2.513,0,4,4,4,1,Training/FO_YI_LAY.wav,OLD,,,,,,,,,,,,,,,,,,,,,
,,,,,,,,,,,,,,,,TestWords/LU_HAI_BO.wav,,60f68b570ae2316894fb0a51,2021-11-03_13h47.09.468,Agingstudy,2020.2.10,MacIntel,60,,,,,B,,,,,,,,,,,,,space,5.512,2,1,1.332,0,0,0,0,1,2,NEW,NEW,,,,,,,,
,,,,,,,,,,,,,,,,TestWords/CHU_LA_PAY.wav,,60f68b570ae2316894fb0a51,2021-11-03_13h47.09.468,Agingstudy,2020.2.10,MacIntel,60,,,,,B,,,,,,,,,,,,,,,2,1,1.342,0,1,1,1,1,2,NEW,NEW,,,,,,,,
,,,,,,,,,,,,,,,,TestWords/RAY_PA_TI.wav,,60f68b570ae2316894fb0a51,2021-11-03_13h47.09.468,Agingstudy,2020.2.10,MacIntel,60,,,,,B,,,,,,,,,,,,,,,2,1,1.354,0,2,2,2,1,2,NEW,NEW,,,,,,,,
,,,,,,,,,,,,,,,,TestWords/DA_CHU_VAI.wav,,60f68b570ae2316894fb0a51,2021-11-03_13h47.09.468,Agingstudy,2020.2.10,MacIntel,60,,,,,B,,,,,,,,,,,,,,,2,1,0.888,0,3,3,3,1,2,NEW,NEW,,,,,,,,
,,,,,,,,,,,,,,,,TestWords/DAY_PU_MO.wav,,60f68b570ae2316894fb0a51,2021-11-03_13h47.09.468,Agingstudy,2020.2.10,MacIntel,60,,,,,B,,,,,,,,,,,,,,,2,1,0.67,0,4,4,4,1,2,NEW,NEW,,,,,,,,
,,,,,,,,,,,,,,,,TestWords/DAI_RU_CHI.wav,,60f68b570ae2316894fb0a51,2021-11-03_13h47.09.468,Agingstudy,2020.2.10,MacIntel,60,,,,,B,,,,,,,,,,,,,,,2,1,2.418,0,5,5,5,1,2,NEW,NEW,,,,,,,,
,,,,,,,,,,,,,,,,TestWords/RAI_ZO_FU.wav,,60f68b570ae2316894fb0a51,2021-11-03_13h47.09.468,Agingstudy,2020.2.10,MacIntel,60,,,,,B,,,,,,,,,,,,,,,2,1,0.4,0,6,6,6,1,2,NEW,NEW,,,,,,,,
,,,,,,,,,,,,,,,,TestWords/HO_NAY_VA.wav,,60f68b570ae2316894fb0a51,2021-11-03_13h47.09.468,Agingstudy,2020.2.10,MacIntel,60,,,,,B,,,,,,,,,,,,,,,2,1,0.304,0,7,7,7,1,2,NEW,NEW,,,,,,,,
,,,,,,,,,,,,,,,,TestWords/RAY_PA_TI.wav,,60f68b570ae2316894fb0a51,2021-11-03_13h47.09.468,Agingstudy,2020.2.10,MacIntel,60,,,,,B,,,,,,,,,,,,,,,1,1,1.149,0,8,8,8,1,1,OLD,OLD,,,,,,,,
,,,,,,,,,,,,,,,,TestWords/DAY_MO_PU.wav,,60f68b570ae2316894fb0a51,2021-11-03_13h47.09.468,Agingstudy,2020.2.10,MacIntel,60,,,,,B,,,,,,,,,,,,,,,2,1,0.571,0,9,9,9,1,2,NEW,SIMILAR,,,,,,,,
,,,,,,,,,,,,,,,,TestWords/TAI_SA_GI.wav,,60f68b570ae2316894fb0a51,2021-11-03_13h47.09.468,Agingstudy,2020.2.10,MacIntel,60,,,,,B,,,,,,,,,,,,,,,2,1,0.294,0,10,10,10,1,2,NEW,NEW,,,,,,,,
,,,,,,,,,,,,,,,,TestWords/DAI_RU_CHI.wav,,60f68b570ae2316894fb0a51,2021-11-03_13h47.09.468,Agingstudy,2020.2.10,MacIntel,60,,,,,B,,,,,,,,,,,,,,,2,0,3.418,0,11,11,11,1,1,OLD,OLD,,,,,,,,
,,,,,,,,,,,,,,,,TestWords/GA_MU_ZI.wav,,60f68b570ae2316894fb0a51,2021-11-03_13h47.09.468,Agingstudy,2020.2.10,MacIntel,60,,,,,B,,,,,,,,,,,,,,,2,1,0.701,0,12,12,12,1,2,NEW,NEW,,,,,,,,
,,,,,,,,,,,,,,,,TestWords/ZO_RAI_FU.wav,,60f68b570ae2316894fb0a51,2021-11-03_13h47.09.468,Agingstudy,2020.2.10,MacIntel,60,,,,,B,,,,,,,,,,,,,,,2,1,0.154,0,13,13,13,1,2,NEW,SIMILAR,,,,,,,,
,,,,,,,,,,,,,,,,TestWords/RAY_PA_TI.wav,,60f68b570ae2316894fb0a51,2021-11-03_13h47.09.468,Agingstudy,2020.2.10,MacIntel,60,,,,,B,,,,,,,,,,,,,,,1,1,0.972,0,14,14,14,1,1,OLD,OLD,,,,,,,,
,,,,,,,,,,,,,,,,TestWords/FI_GU_CHA.wav,,60f68b570ae2316894fb0a51,2021-11-03_13h47.09.468,Agingstudy,2020.2.10,MacIntel,60,,,,,B,,,,,,,,,,,,,,,2,1,0.457,0,15,15,15,1,2,NEW,NEW,,,,,,,,
,,,,,,,,,,,,,,,,TestWords/MO_DAY_PU.wav,,60f68b570ae2316894fb0a51,2021-11-03_13h47.09.468,Agingstudy,2020.2.10,MacIntel,60,,,,,B,,,,,,,,,,,,,,,2,1,0.176,0,16,16,16,1,2,NEW,SIMILAR,,,,,,,,
,,,,,,,,,,,,,,,,TestWords/GI_SA_TAI.wav,,60f68b570ae2316894fb0a51,2021-11-03_13h47.09.468,Agingstudy,2020.2.10,MacIntel,60,,,,,B,,,,,,,,,,,,,,,2,1,0.683,0,17,17,17,1,2,NEW,SIMILAR,,,,,,,,
,,,,,,,,,,,,,,,,TestWords/FU_RAI_ZO.wav,,60f68b570ae2316894fb0a51,2021-11-03_13h47.09.468,Agingstudy,2020.2.10,MacIntel,60,,,,,B,,,,,,,,,,,,,,,2,1,1.05,0,18,18,18,1,2,NEW,SIMILAR,,,,,,,,
,,,,,,,,,,,,,,,,TestWords/DAI_RU_CHI.wav,,60f68b570ae2316894fb0a51,2021-11-03_13h47.09.468,Agingstudy,2020.2.10,MacIntel,60,,,,,B,,,,,,,,,,,,,,,1,1,0.794,0,19,19,19,1,1,OLD,OLD,,,,,,,,
,,,,,,,,,,,,,,,,TestWords/KO_SU_FAI.wav,,60f68b570ae2316894fb0a51,2021-11-03_13h47.09.468,Agingstudy,2020.2.10,MacIntel,60,,,,,B,,,,,,,,,,,,,,,2,1,0.222,0,20,20,20,1,2,NEW,NEW,,,,,,,,
,,,,,,,,,,,,,,,,TestWords/GA_MU_ZI.wav,,60f68b570ae2316894fb0a51,2021-11-03_13h47.09.468,Agingstudy,2020.2.10,MacIntel,60,,,,,B,,,,,,,,,,,,,,,1,1,2.637,0,21,21,21,1,1,OLD,OLD,,,,,,,,
,,,,,,,,,,,,,,,,TestWords/RAY_PA_TI.wav,,60f68b570ae2316894fb0a51,2021-11-03_13h47.09.468,Agingstudy,2020.2.10,MacIntel,60,,,,,B,,,,,,,,,,,,,,,1,1,0.323,0,22,22,22,1,1,OLD,OLD,,,,,,,,
,,,,,,,,,,,,,,,,TestWords/PU_DAY_MO.wav,,60f68b570ae2316894fb0a51,2021-11-03_13h47.09.468,Agingstudy,2020.2.10,MacIntel,60,,,,,B,,,,,,,,,,,,,,,2,1,0.384,0,23,23,23,1,2,NEW,SIMILAR,,,,,,,,
,,,,,,,,,,,,,,,,TestWords/GI_TAI_SA.wav,,60f68b570ae2316894fb0a51,2021-11-03_13h47.09.468,Agingstudy,2020.2.10,MacIntel,60,,,,,B,,,,,,,,,,,,,,,2,1,0.322,0,24,24,24,1,2,NEW,SIMILAR,,,,,,,,
,,,,,,,,,,,,,,,,TestWords/KO_SU_FAI.wav,,60f68b570ae2316894fb0a51,2021-11-03_13h47.09.468,Agingstudy,2020.2.10,MacIntel,60,,,,,B,,,,,,,,,,,,,,,2,0,2.444,0,25,25,25,1,1,OLD,OLD,,,,,,,,
,,,,,,,,,,,,,,,,TestWords/FU_ZO_RAI.wav,,60f68b570ae2316894fb0a51,2021-11-03_13h47.09.468,Agingstudy,2020.2.10,MacIntel,60,,,,,B,,,,,,,,,,,,,,,2,1,0.858,0,26,26,26,1,2,NEW,SIMILAR,,,,,,,,
,,,,,,,,,,,,,,,,TestWords/DAI_RU_CHI.wav,,60f68b570ae2316894fb0a51,2021-11-03_13h47.09.468,Agingstudy,2020.2.10,MacIntel,60,,,,,B,,,,,,,,,,,,,,,1,1,1.223,0,27,27,27,1,1,OLD,OLD,,,,,,,,
,,,,,,,,,,,,,,,,TestWords/RAY_PA_TI.wav,,60f68b570ae2316894fb0a51,2021-11-03_13h47.09.468,Agingstudy,2020.2.10,MacIntel,60,,,,,B,,,,,,,,,,,,,,,1,1,0.299,0,28,28,28,1,1,OLD,OLD,,,,,,,,
,,,,,,,,,,,,,,,,TestWords/GA_MU_ZI.wav,,60f68b570ae2316894fb0a51,2021-11-03_13h47.09.468,Agingstudy,2020.2.10,MacIntel,60,,,,,B,,,,,,,,,,,,,,,2,0,0.456,0,29,29,29,1,1,OLD,OLD,,,,,,,,
,,,,,,,,,,,,,,,,TestWords/WAI_VU_NA.wav,,60f68b570ae2316894fb0a51,2021-11-03_13h47.09.468,Agingstudy,2020.2.10,MacIntel,60,,,,,B,,,,,,,,,,,,,,,2,1,0.333,0,30,30,30,1,2,NEW,NEW,,,,,,,,
,,,,,,,,,,,,,,,,TestWords/SA_TAI_GI.wav,,60f68b570ae2316894fb0a51,2021-11-03_13h47.09.468,Agingstudy,2020.2.10,MacIntel,60,,,,,B,,,,,,,,,,,,,,,2,1,0.323,0,31,31,31,1,2,NEW,SIMILAR,,,,,,,,
,,,,,,,,,,,,,,,,TestWords/PU_MO_DAY.wav,,60f68b570ae2316894fb0a51,2021-11-03_13h47.09.468,Agingstudy,2020.2.10,MacIntel,60,,,,,B,,,,,,,,,,,,,,,2,1,0.223,0,32,32,32,1,2,NEW,SIMILAR,,,,,,,,
,,,,,,,,,,,,,,,,TestWords/KO_SU_FAI.wav,,60f68b570ae2316894fb0a51,2021-11-03_13h47.09.468,Agingstudy,2020.2.10,MacIntel,60,,,,,B,,,,,,,,,,,,,,,1,1,2.829,0,33,33,33,1,1,OLD,OLD,,,,,,,,
,,,,,,,,,,,,,,,,TestWords/RAI_FU_ZO.wav,,60f68b570ae2316894fb0a51,2021-11-03_13h47.09.468,Agingstudy,2020.2.10,MacIntel,60,,,,,B,,,,,,,,,,,,,,,2,1,0.556,0,34,34,34,1,2,NEW,SIMILAR,,,,,,,,
,,,,,,,,,,,,,,,,TestWords/KAI_LAY_TA.wav,,60f68b570ae2316894fb0a51,2021-11-03_13h47.09.468,Agingstudy,2020.2.10,MacIntel,60,,,,,B,,,,,,,,,,,,,,,2,1,1.235,0,35,35,35,1,2,NEW,NEW,,,,,,,,
,,,,,,,,,,,,,,,,TestWords/RAY_PA_TI.wav,,60f68b570ae2316894fb0a51,2021-11-03_13h47.09.468,Agingstudy,2020.2.10,MacIntel,60,,,,,B,,,,,,,,,,,,,,,1,1,0.092,0,36,36,36,1,1,OLD,OLD,,,,,,,,
,,,,,,,,,,,,,,,,TestWords/WAI_NA_VU.wav,,60f68b570ae2316894fb0a51,2021-11-03_13h47.09.468,Agingstudy,2020.2.10,MacIntel,60,,,,,B,,,,,,,,,,,,,,,2,1,0.419,0,37,37,37,1,2,NEW,SIMILAR,,,,,,,,
,,,,,,,,,,,,,,,,TestWords/GA_MU_ZI.wav,,60f68b570ae2316894fb0a51,2021-11-03_13h47.09.468,Agingstudy,2020.2.10,MacIntel,60,,,,,B,,,,,,,,,,,,,,,2,0,0.9,0,38,38,38,1,1,OLD,OLD,,,,,,,,
,,,,,,,,,,,,,,,,TestWords/MO_PU_DAY.wav,,60f68b570ae2316894fb0a51,2021-11-03_13h47.09.468,Agingstudy,2020.2.10,MacIntel,60,,,,,B,,,,,,,,,,,,,,,2,1,0.442,0,39,39,39,1,2,NEW,SIMILAR,,,,,,,,
,,,,,,,,,,,,,,,,TestWords/DAI_RU_CHI.wav,,60f68b570ae2316894fb0a51,2021-11-03_13h47.09.468,Agingstudy,2020.2.10,MacIntel,60,,,,,B,,,,,,,,,,,,,,,1,1,1.126,0,40,40,40,1,1,OLD,OLD,,,,,,,,
,,,,,,,,,,,,,,,,TestWords/SA_GI_TAI.wav,,60f68b570ae2316894fb0a51,2021-11-03_13h47.09.468,Agingstudy,2020.2.10,MacIntel,60,,,,,B,,,,,,,,,,,,,,,2,1,0.324,0,41,41,41,1,2,NEW,SIMILAR,,,,,,,,
,,,,,,,,,,,,,,,,TestWords/KO_SU_FAI.wav,,60f68b570ae2316894fb0a51,2021-11-03_13h47.09.468,Agingstudy,2020.2.10,MacIntel,60,,,,,B,,,,,,,,,,,,,,,2,0,0.345,0,42,42,42,1,1,OLD,OLD,,,,,,,,
,,,,,,,,,,,,,,,,TestWords/ZO_FU_RAI.wav,,60f68b570ae2316894fb0a51,2021-11-03_13h47.09.468,Agingstudy,2020.2.10,MacIntel,60,,,,,B,,,,,,,,,,,,,,,2,1,1.603,0,43,43,43,1,2,NEW,SIMILAR,,,,,,,,
,,,,,,,,,,,,,,,,TestWords/KAI_LAY_TA.wav,,60f68b570ae2316894fb0a51,2021-11-03_13h47.09.468,Agingstudy,2020.2.10,MacIntel,60,,,,,B,,,,,,,,,,,,,,,2,0,0.257,0,44,44,44,1,1,OLD,OLD,,,,,,,,
,,,,,,,,,,,,,,,,TestWords/RAY_PA_TI.wav,,60f68b570ae2316894fb0a51,2021-11-03_13h47.09.468,Agingstudy,2020.2.10,MacIntel,60,,,,,B,,,,,,,,,,,,,,,1,1,0.033,0,45,45,45,1,1,OLD,OLD,,,,,,,,
,,,,,,,,,,,,,,,,TestWords/DAI_RU_CHI.wav,,60f68b570ae2316894fb0a51,2021-11-03_13h47.09.468,Agingstudy,2020.2.10,MacIntel,60,,,,,B,,,,,,,,,,,,,,,1,1,0.726,0,46,46,46,1,1,OLD,OLD,,,,,,,,
,,,,,,,,,,,,,,,,TestWords/VU_NA_WAI.wav,,60f68b570ae2316894fb0a51,2021-11-03_13h47.09.468,Agingstudy,2020.2.10,MacIntel,60,,,,,B,,,,,,,,,,,,,,,2,1,0.189,0,47,47,47,1,2,NEW,SIMILAR,,,,,,,,
,,,,,,,,,,,,,,,,TestWords/TAI_GI_SA.wav,,60f68b570ae2316894fb0a51,2021-11-03_13h47.09.468,Agingstudy,2020.2.10,MacIntel,60,,,,,B,,,,,,,,,,,,,,,2,1,0.509,0,48,48,48,1,2,NEW,SIMILAR,,,,,,,,
,,,,,,,,,,,,,,,,TestWords/GA_MU_ZI.wav,,60f68b570ae2316894fb0a51,2021-11-03_13h47.09.468,Agingstudy,2020.2.10,MacIntel,60,,,,,B,,,,,,,,,,,,,,,1,1,1.33,0,49,49,49,1,1,OLD,OLD,,,,,,,,
,,,,,,,,,,,,,,,,TestWords/KO_SU_FAI.wav,,60f68b570ae2316894fb0a51,2021-11-03_13h47.09.468,Agingstudy,2020.2.10,MacIntel,60,,,,,B,,,,,,,,,,,,,,,2,0,2.843,0,50,50,50,1,1,OLD,OLD,,,,,,,,
,,,,,,,,,,,,,,,,TestWords/KAI_LAY_TA.wav,,60f68b570ae2316894fb0a51,2021-11-03_13h47.09.468,Agingstudy,2020.2.10,MacIntel,60,,,,,B,,,,,,,,,,,,,,,1,1,1.098,0,51,51,51,1,1,OLD,OLD,,,,,,,,
,,,,,,,,,,,,,,,,TestWords/HA_SI_JAI.wav,,60f68b570ae2316894fb0a51,2021-11-03_13h47.09.468,Agingstudy,2020.2.10,MacIntel,60,,,,,B,,,,,,,,,,,,,,,2,1,0.342,0,52,52,52,1,2,NEW,NEW,,,,,,,,
,,,,,,,,,,,,,,,,TestWords/RAY_PA_TI.wav,,60f68b570ae2316894fb0a51,2021-11-03_13h47.09.468,Agingstudy,2020.2.10,MacIntel,60,,,,,B,,,,,,,,,,,,,,,1,1,0.058,0,53,53,53,1,1,OLD,OLD,,,,,,,,
,,,,,,,,,,,,,,,,TestWords/VU_WAI_NA.wav,,60f68b570ae2316894fb0a51,2021-11-03_13h47.09.468,Agingstudy,2020.2.10,MacIntel,60,,,,,B,,,,,,,,,,,,,,,2,1,0.153,0,54,54,54,1,2,NEW,SIMILAR,,,,,,,,
,,,,,,,,,,,,,,,,TestWords/DAI_RU_CHI.wav,,60f68b570ae2316894fb0a51,2021-11-03_13h47.09.468,Agingstudy,2020.2.10,MacIntel,60,,,,,B,,,,,,,,,,,,,,,2,0,2.979,0,55,55,55,1,1,OLD,OLD,,,,,,,,
,,,,,,,,,,,,,,,,TestWords/GA_MU_ZI.wav,,60f68b570ae2316894fb0a51,2021-11-03_13h47.09.468,Agingstudy,2020.2.10,MacIntel,60,,,,,B,,,,,,,,,,,,,,,2,0,0.284,0,56,56,56,1,1,OLD,OLD,,,,,,,,
,,,,,,,,,,,,,,,,TestWords/KAI_LAY_TA.wav,,60f68b570ae2316894fb0a51,2021-11-03_13h47.09.468,Agingstudy,2020.2.10,MacIntel,60,,,,,B,,,,,,,,,,,,,,,2,0,2.03,0,57,57,57,1,1,OLD,OLD,,,,,,,,
,,,,,,,,,,,,,,,,TestWords/NU_CHAY_SO.wav,,60f68b570ae2316894fb0a51,2021-11-03_13h47.09.468,Agingstudy,2020.2.10,MacIntel,60,,,,,B,,,,,,,,,,,,,,,2,1,0.17,0,58,58,58,1,2,NEW,NEW,,,,,,,,
,,,,,,,,,,,,,,,,TestWords/KO_SU_FAI.wav,,60f68b570ae2316894fb0a51,2021-11-03_13h47.09.468,Agingstudy,2020.2.10,MacIntel,60,,,,,B,,,,,,,,,,,,,,,1,1,0.637,0,59,59,59,1,1,OLD,OLD,,,,,,,,
,,,,,,,,,,,,,,,,TestWords/RAY_PA_TI.wav,,60f68b570ae2316894fb0a51,2021-11-03_13h47.09.468,Agingstudy,2020.2.10,MacIntel,60,,,,,B,,,,,,,,,,,,,,,1,1,0.085,0,60,60,60,1,1,OLD,OLD,,,,,,,,
,,,,,,,,,,,,,,,,TestWords/BA_KAY_LI.wav,,60f68b570ae2316894fb0a51,2021-11-03_13h47.09.468,Agingstudy,2020.2.10,MacIntel,60,,,,,B,,,,,,,,,,,,,,,2,1,0.349,0,61,61,61,1,2,NEW,NEW,,,,,,,,
,,,,,,,,,,,,,,,,TestWords/KAI_LAY_TA.wav,,60f68b570ae2316894fb0a51,2021-11-03_13h47.09.468,Agingstudy,2020.2.10,MacIntel,60,,,,,B,,,,,,,,,,,,,,,1,1,0.542,0,62,62,62,1,1,OLD,OLD,,,,,,,,
,,,,,,,,,,,,,,,,TestWords/NA_VU_WAI.wav,,60f68b570ae2316894fb0a51,2021-11-03_13h47.09.468,Agingstudy,2020.2.10,MacIntel,60,,,,,B,,,,,,,,,,,,,,,2,1,0.118,0,63,63,63,1,2,NEW,SIMILAR,,,,,,,,
,,,,,,,,,,,,,,,,TestWords/GA_MU_ZI.wav,,60f68b570ae2316894fb0a51,2021-11-03_13h47.09.468,Agingstudy,2020.2.10,MacIntel,60,,,,,B,,,,,,,,,,,,,,,1,1,2.028,0,64,64,64,1,1,OLD,OLD,,,,,,,,
,,,,,,,,,,,,,,,,TestWords/KO_SU_FAI.wav,,60f68b570ae2316894fb0a51,2021-11-03_13h47.09.468,Agingstudy,2020.2.10,MacIntel,60,,,,,B,,,,,,,,,,,,,,,1,1,0.342,0,65,65,65,1,1,OLD,OLD,,,,,,,,
,,,,,,,,,,,,,,,,TestWords/DAI_RU_CHI.wav,,60f68b570ae2316894fb0a51,2021-11-03_13h47.09.468,Agingstudy,2020.2.10,MacIntel,60,,,,,B,,,,,,,,,,,,,,,1,1,0.75,0,66,66,66,1,1,OLD,OLD,,,,,,,,
,,,,,,,,,,,,,,,,TestWords/GU_CHAI_PI.wav,,60f68b570ae2316894fb0a51,2021-11-03_13h47.09.468,Agingstudy,2020.2.10,MacIntel,60,,,,,B,,,,,,,,,,,,,,,2,1,1.919,0,67,67,67,1,2,NEW,NEW,,,,,,,,
,,,,,,,,,,,,,,,,TestWords/RAY_PA_TI.wav,,60f68b570ae2316894fb0a51,2021-11-03_13h47.09.468,Agingstudy,2020.2.10,MacIntel,60,,,,,B,,,,,,,,,,,,,,,1,1,0.143,0,68,68,68,1,1,OLD,OLD,,,,,,,,
,,,,,,,,,,,,,,,,TestWords/KAY_LI_BA.wav,,60f68b570ae2316894fb0a51,2021-11-03_13h47.09.468,Agingstudy,2020.2.10,MacIntel,60,,,,,B,,,,,,,,,,,,,,,2,1,0.419,0,69,69,69,1,2,NEW,SIMILAR,,,,,,,,
,,,,,,,,,,,,,,,,TestWords/KAI_LAY_TA.wav,,60f68b570ae2316894fb0a51,2021-11-03_13h47.09.468,Agingstudy,2020.2.10,MacIntel,60,,,,,B,,,,,,,,,,,,,,,1,1,0.483,0,70,70,70,1,1,OLD,OLD,,,,,,,,
,,,,,,,,,,,,,,,,TestWords/KO_SU_FAI.wav,,60f68b570ae2316894fb0a51,2021-11-03_13h47.09.468,Agingstudy,2020.2.10,MacIntel,60,,,,,B,,,,,,,,,,,,,,,1,1,0.084,0,71,71,71,1,1,OLD,OLD,,,,,,,,
,,,,,,,,,,,,,,,,TestWords/DAI_RU_CHI.wav,,60f68b570ae2316894fb0a51,2021-11-03_13h47.09.468,Agingstudy,2020.2.10,MacIntel,60,,,,,B,,,,,,,,,,,,,,,1,1,0.143,0,72,72,72,1,1,OLD,OLD,,,,,,,,
,,,,,,,,,,,,,,,,TestWords/NA_WAI_VU.wav,,60f68b570ae2316894fb0a51,2021-11-03_13h47.09.468,Agingstudy,2020.2.10,MacIntel,60,,,,,B,,,,,,,,,,,,,,,2,1,0.067,0,73,73,73,1,2,NEW,SIMILAR,,,,,,,,
,,,,,,,,,,,,,,,,TestWords/GA_MU_ZI.wav,,60f68b570ae2316894fb0a51,2021-11-03_13h47.09.468,Agingstudy,2020.2.10,MacIntel,60,,,,,B,,,,,,,,,,,,,,,1,1,0.769,0,74,74,74,1,1,OLD,OLD,,,,,,,,
,,,,,,,,,,,,,,,,TestWords/KAY_BA_LI.wav,,60f68b570ae2316894fb0a51,2021-11-03_13h47.09.468,Agingstudy,2020.2.10,MacIntel,60,,,,,B,,,,,,,,,,,,,,,1,0,0.291,0,75,75,75,1,2,NEW,SIMILAR,,,,,,,,
,,,,,,,,,,,,,,,,TestWords/WAI_RO_JU.wav,,60f68b570ae2316894fb0a51,2021-11-03_13h47.09.468,Agingstudy,2020.2.10,MacIntel,60,,,,,B,,,,,,,,,,,,,,,2,1,0.01,0,76,76,76,1,2,NEW,NEW,,,,,,,,
,,,,,,,,,,,,,,,,TestWords/RAY_PA_TI.wav,,60f68b570ae2316894fb0a51,2021-11-03_13h47.09.468,Agingstudy,2020.2.10,MacIntel,60,,,,,B,,,,,,,,,,,,,,,1,1,0.002,0,77,77,77,1,1,OLD,OLD,,,,,,,,
,,,,,,,,,,,,,,,,TestWords/KAI_LAY_TA.wav,,60f68b570ae2316894fb0a51,2021-11-03_13h47.09.468,Agingstudy,2020.2.10,MacIntel,60,,,,,B,,,,,,,,,,,,,,,2,0,0.436,0,78,78,78,1,1,OLD,OLD,,,,,,,,
,,,,,,,,,,,,,,,,TestWords/HI_NAY_VA.wav,,60f68b570ae2316894fb0a51,2021-11-03_13h47.09.468,Agingstudy,2020.2.10,MacIntel,60,,,,,B,,,,,,,,,,,,,,,2,1,0.134,0,79,79,79,1,2,NEW,NEW,,,,,,,,
,,,,,,,,,,,,,,,,TestWords/KO_SU_FAI.wav,,60f68b570ae2316894fb0a51,2021-11-03_13h47.09.468,Agingstudy,2020.2.10,MacIntel,60,,,,,B,,,,,,,,,,,,,,,1,1,0.224,0,80,80,80,1,1,OLD,OLD,,,,,,,,
,,,,,,,,,,,,,,,,TestWords/GA_MU_ZI.wav,,60f68b570ae2316894fb0a51,2021-11-03_13h47.09.468,Agingstudy,2020.2.10,MacIntel,60,,,,,B,,,,,,,,,,,,,,,1,1,0.688,0,81,81,81,1,1,OLD,OLD,,,,,,,,
,,,,,,,,,,,,,,,,TestWords/KAI_LAY_TA.wav,,60f68b570ae2316894fb0a51,2021-11-03_13h47.09.468,Agingstudy,2020.2.10,MacIntel,60,,,,,B,,,,,,,,,,,,,,,1,1,0.383,0,82,82,82,1,1,OLD,OLD,,,,,,,,
,,,,,,,,,,,,,,,,TestWords/LI_BA_KAY.wav,,60f68b570ae2316894fb0a51,2021-11-03_13h47.09.468,Agingstudy,2020.2.10,MacIntel,60,,,,,B,,,,,,,,,,,,,,,2,1,0.194,0,83,83,83,1,2,NEW,SIMILAR,,,,,,,,
,,,,,,,,,,,,,,,,TestWords/DAI_RU_CHI.wav,,60f68b570ae2316894fb0a51,2021-11-03_13h47.09.468,Agingstudy,2020.2.10,MacIntel,60,,,,,B,,,,,,,,,,,,,,,1,1,0.14,0,84,84,84,1,1,OLD,OLD,,,,,,,,
,,,,,,,,,,,,,,,,TestWords/KO_SU_FAI.wav,,60f68b570ae2316894fb0a51,2021-11-03_13h47.09.468,Agingstudy,2020.2.10,MacIntel,60,,,,,B,,,,,,,,,,,,,,,1,1,0.207,0,85,85,85,1,1,OLD,OLD,,,,,,,,
,,,,,,,,,,,,,,,,TestWords/NO_WA_BAY.wav,,60f68b570ae2316894fb0a51,2021-11-03_13h47.09.468,Agingstudy,2020.2.10,MacIntel,60,,,,,B,,,,,,,,,,,,,,,2,1,0.423,0,86,86,86,1,2,NEW,NEW,,,,,,,,
,,,,,,,,,,,,,,,,TestWords/KAI_LAY_TA.wav,,60f68b570ae2316894fb0a51,2021-11-03_13h47.09.468,Agingstudy,2020.2.10,MacIntel,60,,,,,B,,,,,,,,,,,,,,,1,1,0.05,0,87,87,87,1,1,OLD,OLD,,,,,,,,
,,,,,,,,,,,,,,,,TestWords/GA_MU_ZI.wav,,60f68b570ae2316894fb0a51,2021-11-03_13h47.09.468,Agingstudy,2020.2.10,MacIntel,60,,,,,B,,,,,,,,,,,,,,,1,1,2.135,0,88,88,88,1,1,OLD,OLD,,,,,,,,
,,,,,,,,,,,,,,,,TestWords/DAI_RU_CHI.wav,,60f68b570ae2316894fb0a51,2021-11-03_13h47.09.468,Agingstudy,2020.2.10,MacIntel,60,,,,,B,,,,,,,,,,,,,,,1,1,0.392,0,89,89,89,1,1,OLD,OLD,,,,,,,,
,,,,,,,,,,,,,,,,TestWords/LA_ZAY_CHAI.wav,,60f68b570ae2316894fb0a51,2021-11-03_13h47.09.468,Agingstudy,2020.2.10,MacIntel,60,,,,,B,,,,,,,,,,,,,,,2,1,0.257,0,90,90,90,1,2,NEW,NEW,,,,,,,,
,,,,,,,,,,,,,,,,TestWords/BA_LI_KAY.wav,,60f68b570ae2316894fb0a51,2021-11-03_13h47.09.468,Agingstudy,2020.2.10,MacIntel,60,,,,,B,,,,,,,,,,,,,,,2,1,0.291,0,91,91,91,1,2,NEW,SIMILAR,,,,,,,,
,,,,,,,,,,,,,,,,TestWords/PAI_LU_WA.wav,,60f68b570ae2316894fb0a51,2021-11-03_13h47.09.468,Agingstudy,2020.2.10,MacIntel,60,,,,,B,,,,,,,,,,,,,,,2,1,0.25,0,92,92,92,1,2,NEW,NEW,,,,,,,,
,,,,,,,,,,,,,,,,TestWords/KO_SU_FAI.wav,,60f68b570ae2316894fb0a51,2021-11-03_13h47.09.468,Agingstudy,2020.2.10,MacIntel,60,,,,,B,,,,,,,,,,,,,,,1,1,0.086,0,93,93,93,1,1,OLD,OLD,,,,,,,,
,,,,,,,,,,,,,,,,TestWords/KAI_LAY_TA.wav,,60f68b570ae2316894fb0a51,2021-11-03_13h47.09.468,Agingstudy,2020.2.10,MacIntel,60,,,,,B,,,,,,,,,,,,,,,1,1,0.523,0,94,94,94,1,1,OLD,OLD,,,,,,,,
,,,,,,,,,,,,,,,,TestWords/VAI_HO_LA.wav,,60f68b570ae2316894fb0a51,2021-11-03_13h47.09.468,Agingstudy,2020.2.10,MacIntel,60,,,,,B,,,,,,,,,,,,,,,2,1,0.194,0,95,95,95,1,2,NEW,NEW,,,,,,,,
,,,,,,,,,,,,,,,,TestWords/GA_MU_ZI.wav,,60f68b570ae2316894fb0a51,2021-11-03_13h47.09.468,Agingstudy,2020.2.10,MacIntel,60,,,,,B,,,,,,,,,,,,,,,1,1,0.051,0,96,96,96,1,1,OLD,OLD,,,,,,,,
,,,,,,,,,,,,,,,,TestWords/LI_KAY_BA.wav,,60f68b570ae2316894fb0a51,2021-11-03_13h47.09.468,Agingstudy,2020.2.10,MacIntel,60,,,,,B,,,,,,,,,,,,,,,1,0,0.6,0,97,97,97,1,2,NEW,SIMILAR,,,,,,,,
,,,,,,,,,,,,,,,,TestWords/KAI_LAY_TA.wav,,60f68b570ae2316894fb0a51,2021-11-03_13h47.09.468,Agingstudy,2020.2.10,MacIntel,60,,,,,B,,,,,,,,,,,,,,,1,1,0.572,0,98,98,98,1,1,OLD,OLD,,,,,,,,
,,,,,,,,,,,,,,,,TestWords/SI_VAI_CHU.wav,,60f68b570ae2316894fb0a51,2021-11-03_13h47.09.468,Agingstudy,2020.2.10,MacIntel,60,,,,,B,,,,,,,,,,,,,,,2,1,1.463,0,99,99,99,1,2,NEW,NEW,,,,,,,,
,,,,,,,,,,,,,,,,,,60f68b570ae2316894fb0a51,2021-11-03_13h47.09.468,Agingstudy,2020.2.10,MacIntel,60,,,,,,,,,,,,,,,,,,,,,,,,,,,,,,,0,0,0,0,1,,,
,,,,,,,,,,,,,,,,,,60f68b570ae2316894fb0a51,2021-11-03_13h47.09.468,Agingstudy,2020.2.10,MacIntel,60,,,,,,,,,,,,,,,,,,,,,,,,,,,,,,,,,,,,return,5.959,
