Welcome0Continue.keys,Welcome0Continue.rt,SoundCheckBegin.keys,SoundCheckBegin.rt,SoundCheckEndKey.keys,SoundCheckEndKey.rt,HeadphoneContinueKey.keys,HeadphoneContinueKey.rt,CheckResp.keys,CheckResp.corr,CheckResp.rt,HeadphoneLoop.thisRepN,HeadphoneLoop.thisTrialN,HeadphoneLoop.thisN,HeadphoneLoop.thisIndex,HeadphoneLoop.ran,File,Correct,participant,date,expName,psychopyVersion,OS,frameRate,ContinueKey8.keys,ContinueKey8.rt,MSTWelcomeContKey.keys,MSTWelcomeContKey.rt,Condition,MSTTrainIntroKey.keys,MSTTrainIntroKey.rt,MSTTrainKeys.keys,MSTTrainKeys.corr,MSTTrainKeys.rt,MSTTrainLoop.thisRepN,MSTTrainLoop.thisTrialN,MSTTrainLoop.thisN,MSTTrainLoop.thisIndex,MSTTrainLoop.ran,SoundFile,Type,MSTTestBeginKey.keys,MSTTestBeginKey.rt,MST_resp.keys,MST_resp.corr,MST_resp.rt,MSTPlayLoop.thisRepN,MSTPlayLoop.thisTrialN,MSTPlayLoop.thisN,MSTPlayLoop.thisIndex,MSTPlayLoop.ran,WordCorrect,Correct_type,WordType,MSTLoop.thisRepN,MSTLoop.thisTrialN,MSTLoop.thisN,MSTLoop.thisIndex,MSTLoop.ran,EndAllKey.keys,EndAllKey.rt,FeedbackResp.text
space,11.7096,space,3.6887,space,2.0774,space,16.254,1,1,3.598,0,0,0,0,1,Headphone/t1_1.wav,1,60fcd8df537cf56255168df4,2021-08-05_23h26.06.219,Agingstudy,2020.2.10,MacIntel,60,,,,,,,,,,,,,,,,,,,,,,,,,,,,,,,,,,,,,,
,,,,,,,,3,1,1.2644,0,1,1,4,1,Headphone/t3_1.wav,3,60fcd8df537cf56255168df4,2021-08-05_23h26.06.219,Agingstudy,2020.2.10,MacIntel,60,,,,,,,,,,,,,,,,,,,,,,,,,,,,,,,,,,,,,,
,,,,,,,,1,1,0.597,0,2,2,1,1,Headphone/t1_2.wav,1,60fcd8df537cf56255168df4,2021-08-05_23h26.06.219,Agingstudy,2020.2.10,MacIntel,60,,,,,,,,,,,,,,,,,,,,,,,,,,,,,,,,,,,,,,
,,,,,,,,2,1,0.3681,0,3,3,3,1,Headphone/t2_2.wav,2,60fcd8df537cf56255168df4,2021-08-05_23h26.06.219,Agingstudy,2020.2.10,MacIntel,60,,,,,,,,,,,,,,,,,,,,,,,,,,,,,,,,,,,,,,
,,,,,,,,2,1,0.3859,0,4,4,2,1,Headphone/t2_1.wav,2,60fcd8df537cf56255168df4,2021-08-05_23h26.06.219,Agingstudy,2020.2.10,MacIntel,60,,,,,,,,,,,,,,,,,,,,,,,,,,,,,,,,,,,,,,
,,,,,,,,3,1,0.6159,0,5,5,5,1,Headphone/t3_2.wav,3,60fcd8df537cf56255168df4,2021-08-05_23h26.06.219,Agingstudy,2020.2.10,MacIntel,60,,,,,,,,,,,,,,,,,,,,,,,,,,,,,,,,,,,,,,
,,,,,,,,,,,,,,,,,2,60fcd8df537cf56255168df4,2021-08-05_23h26.06.219,Agingstudy,2020.2.10,MacIntel,60,space,13.7447,space,5.6865,1,space,5.6865,2,1,4.5912,0,0,0,0,1,Training/FO_YI_LAY.wav,NEW,,,,,,,,,,,,,,,,,,,,,
,,,,,,,,,,,,,,,,,1,60fcd8df537cf56255168df4,2021-08-05_23h26.06.219,Agingstudy,2020.2.10,MacIntel,60,,,,,,,,1,1,0.8942,0,1,1,1,1,Training/FO_YI_LAY.wav,OLD,,,,,,,,,,,,,,,,,,,,,
,,,,,,,,,,,,,,,,,2,60fcd8df537cf56255168df4,2021-08-05_23h26.06.219,Agingstudy,2020.2.10,MacIntel,60,,,,,,,,2,1,0.5362,0,2,2,2,1,Training/YO_BU_JAY.wav,NEW,,,,,,,,,,,,,,,,,,,,,
,,,,,,,,,,,,,,,,,2,60fcd8df537cf56255168df4,2021-08-05_23h26.06.219,Agingstudy,2020.2.10,MacIntel,60,,,,,,,,2,1,0.5819,0,3,3,3,1,Training/JAY_YO_BU.wav,SIMILAR,,,,,,,,,,,,,,,,,,,,,
,,,,,,,,,,,,,,,,,1,60fcd8df537cf56255168df4,2021-08-05_23h26.06.219,Agingstudy,2020.2.10,MacIntel,60,,,,,,,,1,1,0.7154,0,4,4,4,1,Training/FO_YI_LAY.wav,OLD,,,,,,,,,,,,,,,,,,,,,
,,,,,,,,,,,,,,,,TestWords/HO_NAY_VA.wav,,60fcd8df537cf56255168df4,2021-08-05_23h26.06.219,Agingstudy,2020.2.10,MacIntel,60,,,,,E,,,,,,,,,,,,,space,6.2355,2,1,1.2464,0,0,0,0,1,2,NEW,NEW,,,,,,,,
,,,,,,,,,,,,,,,,TestWords/LU_HAI_BO.wav,,60fcd8df537cf56255168df4,2021-08-05_23h26.06.219,Agingstudy,2020.2.10,MacIntel,60,,,,,E,,,,,,,,,,,,,,,2,1,0.4579,0,1,1,1,1,2,NEW,NEW,,,,,,,,
,,,,,,,,,,,,,,,,TestWords/GA_MU_ZI.wav,,60fcd8df537cf56255168df4,2021-08-05_23h26.06.219,Agingstudy,2020.2.10,MacIntel,60,,,,,E,,,,,,,,,,,,,,,2,1,0.1546,0,2,2,2,1,2,NEW,NEW,,,,,,,,
,,,,,,,,,,,,,,,,TestWords/BA_KAY_LI.wav,,60fcd8df537cf56255168df4,2021-08-05_23h26.06.219,Agingstudy,2020.2.10,MacIntel,60,,,,,E,,,,,,,,,,,,,,,2,1,0.206,0,3,3,3,1,2,NEW,NEW,,,,,,,,
,,,,,,,,,,,,,,,,TestWords/DA_CHU_VAI.wav,,60fcd8df537cf56255168df4,2021-08-05_23h26.06.219,Agingstudy,2020.2.10,MacIntel,60,,,,,E,,,,,,,,,,,,,,,2,1,0.2433,0,4,4,4,1,2,NEW,NEW,,,,,,,,
,,,,,,,,,,,,,,,,TestWords/CHU_LA_PAY.wav,,60fcd8df537cf56255168df4,2021-08-05_23h26.06.219,Agingstudy,2020.2.10,MacIntel,60,,,,,E,,,,,,,,,,,,,,,2,1,0.2171,0,5,5,5,1,2,NEW,NEW,,,,,,,,
,,,,,,,,,,,,,,,,TestWords/RAY_PA_TI.wav,,60fcd8df537cf56255168df4,2021-08-05_23h26.06.219,Agingstudy,2020.2.10,MacIntel,60,,,,,E,,,,,,,,,,,,,,,2,1,0.2194,0,6,6,6,1,2,NEW,NEW,,,,,,,,
,,,,,,,,,,,,,,,,TestWords/WAI_VU_NA.wav,,60fcd8df537cf56255168df4,2021-08-05_23h26.06.219,Agingstudy,2020.2.10,MacIntel,60,,,,,E,,,,,,,,,,,,,,,1,0,0.0541,0,7,7,7,1,2,NEW,NEW,,,,,,,,
,,,,,,,,,,,,,,,,TestWords/VAI_HO_LA.wav,,60fcd8df537cf56255168df4,2021-08-05_23h26.06.219,Agingstudy,2020.2.10,MacIntel,60,,,,,E,,,,,,,,,,,,,,,2,1,0.9539,0,8,8,8,1,2,NEW,NEW,,,,,,,,
,,,,,,,,,,,,,,,,TestWords/KAY_LI_BA.wav,,60fcd8df537cf56255168df4,2021-08-05_23h26.06.219,Agingstudy,2020.2.10,MacIntel,60,,,,,E,,,,,,,,,,,,,,,1,0,0.3996,0,9,9,9,1,2,NEW,SIMILAR,,,,,,,,
,,,,,,,,,,,,,,,,TestWords/GA_MU_ZI.wav,,60fcd8df537cf56255168df4,2021-08-05_23h26.06.219,Agingstudy,2020.2.10,MacIntel,60,,,,,E,,,,,,,,,,,,,,,2,0,0.1956,0,10,10,10,1,1,OLD,OLD,,,,,,,,
,,,,,,,,,,,,,,,,TestWords/LA_ZAY_CHAI.wav,,60fcd8df537cf56255168df4,2021-08-05_23h26.06.219,Agingstudy,2020.2.10,MacIntel,60,,,,,E,,,,,,,,,,,,,,,2,1,0.1476,0,11,11,11,1,2,NEW,NEW,,,,,,,,
,,,,,,,,,,,,,,,,TestWords/RAY_PA_TI.wav,,60fcd8df537cf56255168df4,2021-08-05_23h26.06.219,Agingstudy,2020.2.10,MacIntel,60,,,,,E,,,,,,,,,,,,,,,2,0,0.0831,0,12,12,12,1,1,OLD,OLD,,,,,,,,
,,,,,,,,,,,,,,,,TestWords/WAI_NA_VU.wav,,60fcd8df537cf56255168df4,2021-08-05_23h26.06.219,Agingstudy,2020.2.10,MacIntel,60,,,,,E,,,,,,,,,,,,,,,2,1,2.9927,0,13,13,13,1,2,NEW,SIMILAR,,,,,,,,
,,,,,,,,,,,,,,,,TestWords/DAI_RU_CHI.wav,,60fcd8df537cf56255168df4,2021-08-05_23h26.06.219,Agingstudy,2020.2.10,MacIntel,60,,,,,E,,,,,,,,,,,,,,,2,1,0.5329,0,14,14,14,1,2,NEW,NEW,,,,,,,,
,,,,,,,,,,,,,,,,TestWords/KAY_BA_LI.wav,,60fcd8df537cf56255168df4,2021-08-05_23h26.06.219,Agingstudy,2020.2.10,MacIntel,60,,,,,E,,,,,,,,,,,,,,,1,0,0.1378,0,15,15,15,1,2,NEW,SIMILAR,,,,,,,,
,,,,,,,,,,,,,,,,TestWords/GA_MU_ZI.wav,,60fcd8df537cf56255168df4,2021-08-05_23h26.06.219,Agingstudy,2020.2.10,MacIntel,60,,,,,E,,,,,,,,,,,,,,,1,1,0.1013,0,16,16,16,1,1,OLD,OLD,,,,,,,,
,,,,,,,,,,,,,,,,TestWords/VU_NA_WAI.wav,,60fcd8df537cf56255168df4,2021-08-05_23h26.06.219,Agingstudy,2020.2.10,MacIntel,60,,,,,E,,,,,,,,,,,,,,,1,0,0.1932,0,17,17,17,1,2,NEW,SIMILAR,,,,,,,,
,,,,,,,,,,,,,,,,TestWords/RAY_PA_TI.wav,,60fcd8df537cf56255168df4,2021-08-05_23h26.06.219,Agingstudy,2020.2.10,MacIntel,60,,,,,E,,,,,,,,,,,,,,,1,1,0.2172,0,18,18,18,1,1,OLD,OLD,,,,,,,,
,,,,,,,,,,,,,,,,TestWords/LI_BA_KAY.wav,,60fcd8df537cf56255168df4,2021-08-05_23h26.06.219,Agingstudy,2020.2.10,MacIntel,60,,,,,E,,,,,,,,,,,,,,,2,1,3.1116,0,19,19,19,1,2,NEW,SIMILAR,,,,,,,,
,,,,,,,,,,,,,,,,TestWords/DAY_MO_PU.wav,,60fcd8df537cf56255168df4,2021-08-05_23h26.06.219,Agingstudy,2020.2.10,MacIntel,60,,,,,E,,,,,,,,,,,,,,,1,0,0.1324,0,20,20,20,1,2,NEW,NEW,,,,,,,,
,,,,,,,,,,,,,,,,TestWords/DAI_RU_CHI.wav,,60fcd8df537cf56255168df4,2021-08-05_23h26.06.219,Agingstudy,2020.2.10,MacIntel,60,,,,,E,,,,,,,,,,,,,,,2,0,0.1617,0,21,21,21,1,1,OLD,OLD,,,,,,,,
,,,,,,,,,,,,,,,,TestWords/NU_CHAY_SO.wav,,60fcd8df537cf56255168df4,2021-08-05_23h26.06.219,Agingstudy,2020.2.10,MacIntel,60,,,,,E,,,,,,,,,,,,,,,1,0,0.3328,0,22,22,22,1,2,NEW,NEW,,,,,,,,
,,,,,,,,,,,,,,,,TestWords/VU_WAI_NA.wav,,60fcd8df537cf56255168df4,2021-08-05_23h26.06.219,Agingstudy,2020.2.10,MacIntel,60,,,,,E,,,,,,,,,,,,,,,1,0,0.3059,0,23,23,23,1,2,NEW,SIMILAR,,,,,,,,
,,,,,,,,,,,,,,,,TestWords/GA_MU_ZI.wav,,60fcd8df537cf56255168df4,2021-08-05_23h26.06.219,Agingstudy,2020.2.10,MacIntel,60,,,,,E,,,,,,,,,,,,,,,1,1,0.1675,0,24,24,24,1,1,OLD,OLD,,,,,,,,
,,,,,,,,,,,,,,,,TestWords/RAY_PA_TI.wav,,60fcd8df537cf56255168df4,2021-08-05_23h26.06.219,Agingstudy,2020.2.10,MacIntel,60,,,,,E,,,,,,,,,,,,,,,1,1,0.0841,0,25,25,25,1,1,OLD,OLD,,,,,,,,
,,,,,,,,,,,,,,,,TestWords/KAI_LAY_TA.wav,,60fcd8df537cf56255168df4,2021-08-05_23h26.06.219,Agingstudy,2020.2.10,MacIntel,60,,,,,E,,,,,,,,,,,,,,,2,1,0.0991,0,26,26,26,1,2,NEW,NEW,,,,,,,,
,,,,,,,,,,,,,,,,TestWords/TAI_SA_GI.wav,,60fcd8df537cf56255168df4,2021-08-05_23h26.06.219,Agingstudy,2020.2.10,MacIntel,60,,,,,E,,,,,,,,,,,,,,,2,1,0.0161,0,27,27,27,1,2,NEW,NEW,,,,,,,,
,,,,,,,,,,,,,,,,TestWords/BA_LI_KAY.wav,,60fcd8df537cf56255168df4,2021-08-05_23h26.06.219,Agingstudy,2020.2.10,MacIntel,60,,,,,E,,,,,,,,,,,,,,,2,1,2.8831,0,28,28,28,1,2,NEW,SIMILAR,,,,,,,,
,,,,,,,,,,,,,,,,TestWords/KO_SU_FAI.wav,,60fcd8df537cf56255168df4,2021-08-05_23h26.06.219,Agingstudy,2020.2.10,MacIntel,60,,,,,E,,,,,,,,,,,,,,,2,1,0.1778,0,29,29,29,1,2,NEW,NEW,,,,,,,,
,,,,,,,,,,,,,,,,TestWords/MO_DAY_PU.wav,,60fcd8df537cf56255168df4,2021-08-05_23h26.06.219,Agingstudy,2020.2.10,MacIntel,60,,,,,E,,,,,,,,,,,,,,,1,0,0.0323,0,30,30,30,1,2,NEW,SIMILAR,,,,,,,,
,,,,,,,,,,,,,,,,TestWords/DAI_RU_CHI.wav,,60fcd8df537cf56255168df4,2021-08-05_23h26.06.219,Agingstudy,2020.2.10,MacIntel,60,,,,,E,,,,,,,,,,,,,,,2,0,0.0031,0,31,31,31,1,1,OLD,OLD,,,,,,,,
,,,,,,,,,,,,,,,,TestWords/NA_VU_WAI.wav,,60fcd8df537cf56255168df4,2021-08-05_23h26.06.219,Agingstudy,2020.2.10,MacIntel,60,,,,,E,,,,,,,,,,,,,,,1,0,0.0189,0,32,32,32,1,2,NEW,SIMILAR,,,,,,,,
,,,,,,,,,,,,,,,,TestWords/KAI_LAY_TA.wav,,60fcd8df537cf56255168df4,2021-08-05_23h26.06.219,Agingstudy,2020.2.10,MacIntel,60,,,,,E,,,,,,,,,,,,,,,1,1,0.0039,0,33,33,33,1,1,OLD,OLD,,,,,,,,
,,,,,,,,,,,,,,,,TestWords/RAY_PA_TI.wav,,60fcd8df537cf56255168df4,2021-08-05_23h26.06.219,Agingstudy,2020.2.10,MacIntel,60,,,,,E,,,,,,,,,,,,,,,1,1,0.0671,0,34,34,34,1,1,OLD,OLD,,,,,,,,
,,,,,,,,,,,,,,,,TestWords/GA_MU_ZI.wav,,60fcd8df537cf56255168df4,2021-08-05_23h26.06.219,Agingstudy,2020.2.10,MacIntel,60,,,,,E,,,,,,,,,,,,,,,1,1,0.0674,0,35,35,35,1,1,OLD,OLD,,,,,,,,
,,,,,,,,,,,,,,,,TestWords/GI_SA_TAI.wav,,60fcd8df537cf56255168df4,2021-08-05_23h26.06.219,Agingstudy,2020.2.10,MacIntel,60,,,,,E,,,,,,,,,,,,,,,2,1,0.0551,0,36,36,36,1,2,NEW,SIMILAR,,,,,,,,
,,,,,,,,,,,,,,,,TestWords/KO_SU_FAI.wav,,60fcd8df537cf56255168df4,2021-08-05_23h26.06.219,Agingstudy,2020.2.10,MacIntel,60,,,,,E,,,,,,,,,,,,,,,2,0,2.6444,0,37,37,37,1,1,OLD,OLD,,,,,,,,
,,,,,,,,,,,,,,,,TestWords/LI_KAY_BA.wav,,60fcd8df537cf56255168df4,2021-08-05_23h26.06.219,Agingstudy,2020.2.10,MacIntel,60,,,,,E,,,,,,,,,,,,,,,1,0,0.2898,0,38,38,38,1,2,NEW,SIMILAR,,,,,,,,
,,,,,,,,,,,,,,,,TestWords/NA_WAI_VU.wav,,60fcd8df537cf56255168df4,2021-08-05_23h26.06.219,Agingstudy,2020.2.10,MacIntel,60,,,,,E,,,,,,,,,,,,,,,2,1,0.0691,0,39,39,39,1,2,NEW,SIMILAR,,,,,,,,
,,,,,,,,,,,,,,,,TestWords/KAI_LAY_TA.wav,,60fcd8df537cf56255168df4,2021-08-05_23h26.06.219,Agingstudy,2020.2.10,MacIntel,60,,,,,E,,,,,,,,,,,,,,,1,1,2.8667,0,40,40,40,1,1,OLD,OLD,,,,,,,,
,,,,,,,,,,,,,,,,TestWords/RAY_PA_TI.wav,,60fcd8df537cf56255168df4,2021-08-05_23h26.06.219,Agingstudy,2020.2.10,MacIntel,60,,,,,E,,,,,,,,,,,,,,,1,1,0.1857,0,41,41,41,1,1,OLD,OLD,,,,,,,,
,,,,,,,,,,,,,,,,TestWords/PU_DAY_MO.wav,,60fcd8df537cf56255168df4,2021-08-05_23h26.06.219,Agingstudy,2020.2.10,MacIntel,60,,,,,E,,,,,,,,,,,,,,,2,1,0.0375,0,42,42,42,1,2,NEW,SIMILAR,,,,,,,,
,,,,,,,,,,,,,,,,TestWords/GA_MU_ZI.wav,,60fcd8df537cf56255168df4,2021-08-05_23h26.06.219,Agingstudy,2020.2.10,MacIntel,60,,,,,E,,,,,,,,,,,,,,,2,0,0.0658,0,43,43,43,1,1,OLD,OLD,,,,,,,,
,,,,,,,,,,,,,,,,TestWords/DAI_RU_CHI.wav,,60fcd8df537cf56255168df4,2021-08-05_23h26.06.219,Agingstudy,2020.2.10,MacIntel,60,,,,,E,,,,,,,,,,,,,,,2,0,2.8288,0,44,44,44,1,1,OLD,OLD,,,,,,,,
,,,,,,,,,,,,,,,,TestWords/GI_TAI_SA.wav,,60fcd8df537cf56255168df4,2021-08-05_23h26.06.219,Agingstudy,2020.2.10,MacIntel,60,,,,,E,,,,,,,,,,,,,,,1,0,0.2186,0,45,45,45,1,2,NEW,SIMILAR,,,,,,,,
,,,,,,,,,,,,,,,,TestWords/KO_SU_FAI.wav,,60fcd8df537cf56255168df4,2021-08-05_23h26.06.219,Agingstudy,2020.2.10,MacIntel,60,,,,,E,,,,,,,,,,,,,,,2,0,0.2168,0,46,46,46,1,1,OLD,OLD,,,,,,,,
,,,,,,,,,,,,,,,,TestWords/WAI_RO_JU.wav,,60fcd8df537cf56255168df4,2021-08-05_23h26.06.219,Agingstudy,2020.2.10,MacIntel,60,,,,,E,,,,,,,,,,,,,,,2,1,0.0343,0,47,47,47,1,2,NEW,NEW,,,,,,,,
,,,,,,,,,,,,,,,,TestWords/KAI_LAY_TA.wav,,60fcd8df537cf56255168df4,2021-08-05_23h26.06.219,Agingstudy,2020.2.10,MacIntel,60,,,,,E,,,,,,,,,,,,,,,2,0,0.0554,0,48,48,48,1,1,OLD,OLD,,,,,,,,
,,,,,,,,,,,,,,,,TestWords/DAI_RU_CHI.wav,,60fcd8df537cf56255168df4,2021-08-05_23h26.06.219,Agingstudy,2020.2.10,MacIntel,60,,,,,E,,,,,,,,,,,,,,,2,0,0.0646,0,49,49,49,1,1,OLD,OLD,,,,,,,,
,,,,,,,,,,,,,,,,TestWords/RAY_PA_TI.wav,,60fcd8df537cf56255168df4,2021-08-05_23h26.06.219,Agingstudy,2020.2.10,MacIntel,60,,,,,E,,,,,,,,,,,,,,,1,1,0.0671,0,50,50,50,1,1,OLD,OLD,,,,,,,,
,,,,,,,,,,,,,,,,TestWords/SA_TAI_GI.wav,,60fcd8df537cf56255168df4,2021-08-05_23h26.06.219,Agingstudy,2020.2.10,MacIntel,60,,,,,E,,,,,,,,,,,,,,,1,0,0.0831,0,51,51,51,1,2,NEW,SIMILAR,,,,,,,,
,,,,,,,,,,,,,,,,TestWords/KO_SU_FAI.wav,,60fcd8df537cf56255168df4,2021-08-05_23h26.06.219,Agingstudy,2020.2.10,MacIntel,60,,,,,E,,,,,,,,,,,,,,,1,1,0.1025,0,52,52,52,1,1,OLD,OLD,,,,,,,,
,,,,,,,,,,,,,,,,TestWords/PU_MO_DAY.wav,,60fcd8df537cf56255168df4,2021-08-05_23h26.06.219,Agingstudy,2020.2.10,MacIntel,60,,,,,E,,,,,,,,,,,,,,,2,1,0.0067,0,53,53,53,1,2,NEW,SIMILAR,,,,,,,,
,,,,,,,,,,,,,,,,TestWords/GA_MU_ZI.wav,,60fcd8df537cf56255168df4,2021-08-05_23h26.06.219,Agingstudy,2020.2.10,MacIntel,60,,,,,E,,,,,,,,,,,,,,,1,1,2.5594,0,54,54,54,1,1,OLD,OLD,,,,,,,,
,,,,,,,,,,,,,,,,TestWords/KAI_LAY_TA.wav,,60fcd8df537cf56255168df4,2021-08-05_23h26.06.219,Agingstudy,2020.2.10,MacIntel,60,,,,,E,,,,,,,,,,,,,,,1,1,0.1183,0,55,55,55,1,1,OLD,OLD,,,,,,,,
,,,,,,,,,,,,,,,,TestWords/SA_GI_TAI.wav,,60fcd8df537cf56255168df4,2021-08-05_23h26.06.219,Agingstudy,2020.2.10,MacIntel,60,,,,,E,,,,,,,,,,,,,,,1,0,0.2651,0,56,56,56,1,2,NEW,SIMILAR,,,,,,,,
,,,,,,,,,,,,,,,,TestWords/RAY_PA_TI.wav,,60fcd8df537cf56255168df4,2021-08-05_23h26.06.219,Agingstudy,2020.2.10,MacIntel,60,,,,,E,,,,,,,,,,,,,,,1,1,0.1742,0,57,57,57,1,1,OLD,OLD,,,,,,,,
,,,,,,,,,,,,,,,,TestWords/DAI_RU_CHI.wav,,60fcd8df537cf56255168df4,2021-08-05_23h26.06.219,Agingstudy,2020.2.10,MacIntel,60,,,,,E,,,,,,,,,,,,,,,1,1,0.1565,0,58,58,58,1,1,OLD,OLD,,,,,,,,
,,,,,,,,,,,,,,,,TestWords/KO_SU_FAI.wav,,60fcd8df537cf56255168df4,2021-08-05_23h26.06.219,Agingstudy,2020.2.10,MacIntel,60,,,,,E,,,,,,,,,,,,,,,1,1,2.0807,0,59,59,59,1,1,OLD,OLD,,,,,,,,
,,,,,,,,,,,,,,,,TestWords/ZO_RAI_FU.wav,,60fcd8df537cf56255168df4,2021-08-05_23h26.06.219,Agingstudy,2020.2.10,MacIntel,60,,,,,E,,,,,,,,,,,,,,,1,0,0.2165,0,60,60,60,1,2,NEW,NEW,,,,,,,,
,,,,,,,,,,,,,,,,TestWords/KAI_LAY_TA.wav,,60fcd8df537cf56255168df4,2021-08-05_23h26.06.219,Agingstudy,2020.2.10,MacIntel,60,,,,,E,,,,,,,,,,,,,,,2,0,0.3831,0,61,61,61,1,1,OLD,OLD,,,,,,,,
,,,,,,,,,,,,,,,,TestWords/GA_MU_ZI.wav,,60fcd8df537cf56255168df4,2021-08-05_23h26.06.219,Agingstudy,2020.2.10,MacIntel,60,,,,,E,,,,,,,,,,,,,,,2,0,0.0226,0,62,62,62,1,1,OLD,OLD,,,,,,,,
,,,,,,,,,,,,,,,,TestWords/TAI_GI_SA.wav,,60fcd8df537cf56255168df4,2021-08-05_23h26.06.219,Agingstudy,2020.2.10,MacIntel,60,,,,,E,,,,,,,,,,,,,,,1,0,0.0097,0,63,63,63,1,2,NEW,SIMILAR,,,,,,,,
,,,,,,,,,,,,,,,,TestWords/RAY_PA_TI.wav,,60fcd8df537cf56255168df4,2021-08-05_23h26.06.219,Agingstudy,2020.2.10,MacIntel,60,,,,,E,,,,,,,,,,,,,,,1,1,0.11,0,64,64,64,1,1,OLD,OLD,,,,,,,,
,,,,,,,,,,,,,,,,TestWords/DAY_PU_MO.wav,,60fcd8df537cf56255168df4,2021-08-05_23h26.06.219,Agingstudy,2020.2.10,MacIntel,60,,,,,E,,,,,,,,,,,,,,,1,0,0.0506,0,65,65,65,1,2,NEW,SIMILAR,,,,,,,,
,,,,,,,,,,,,,,,,TestWords/KO_SU_FAI.wav,,60fcd8df537cf56255168df4,2021-08-05_23h26.06.219,Agingstudy,2020.2.10,MacIntel,60,,,,,E,,,,,,,,,,,,,,,1,1,0.3676,0,66,66,66,1,1,OLD,OLD,,,,,,,,
,,,,,,,,,,,,,,,,TestWords/DAI_RU_CHI.wav,,60fcd8df537cf56255168df4,2021-08-05_23h26.06.219,Agingstudy,2020.2.10,MacIntel,60,,,,,E,,,,,,,,,,,,,,,1,1,0.2354,0,67,67,67,1,1,OLD,OLD,,,,,,,,
,,,,,,,,,,,,,,,,TestWords/KAI_LAY_TA.wav,,60fcd8df537cf56255168df4,2021-08-05_23h26.06.219,Agingstudy,2020.2.10,MacIntel,60,,,,,E,,,,,,,,,,,,,,,2,0,0.3702,0,68,68,68,1,1,OLD,OLD,,,,,,,,
,,,,,,,,,,,,,,,,TestWords/SI_VAI_CHU.wav,,60fcd8df537cf56255168df4,2021-08-05_23h26.06.219,Agingstudy,2020.2.10,MacIntel,60,,,,,E,,,,,,,,,,,,,,,2,1,0.6338,0,69,69,69,1,2,NEW,NEW,,,,,,,,
,,,,,,,,,,,,,,,,TestWords/GA_MU_ZI.wav,,60fcd8df537cf56255168df4,2021-08-05_23h26.06.219,Agingstudy,2020.2.10,MacIntel,60,,,,,E,,,,,,,,,,,,,,,1,1,0.2514,0,70,70,70,1,1,OLD,OLD,,,,,,,,
,,,,,,,,,,,,,,,,TestWords/KO_SU_FAI.wav,,60fcd8df537cf56255168df4,2021-08-05_23h26.06.219,Agingstudy,2020.2.10,MacIntel,60,,,,,E,,,,,,,,,,,,,,,1,1,0.1983,0,71,71,71,1,1,OLD,OLD,,,,,,,,
,,,,,,,,,,,,,,,,TestWords/RAI_FU_ZO.wav,,60fcd8df537cf56255168df4,2021-08-05_23h26.06.219,Agingstudy,2020.2.10,MacIntel,60,,,,,E,,,,,,,,,,,,,,,1,0,0.0659,0,72,72,72,1,2,NEW,SIMILAR,,,,,,,,
,,,,,,,,,,,,,,,,TestWords/KAI_LAY_TA.wav,,60fcd8df537cf56255168df4,2021-08-05_23h26.06.219,Agingstudy,2020.2.10,MacIntel,60,,,,,E,,,,,,,,,,,,,,,2,0,0.1552,0,73,73,73,1,1,OLD,OLD,,,,,,,,
,,,,,,,,,,,,,,,,TestWords/RAY_PA_TI.wav,,60fcd8df537cf56255168df4,2021-08-05_23h26.06.219,Agingstudy,2020.2.10,MacIntel,60,,,,,E,,,,,,,,,,,,,,,2,0,0.2711,0,74,74,74,1,1,OLD,OLD,,,,,,,,
,,,,,,,,,,,,,,,,TestWords/DAI_RU_CHI.wav,,60fcd8df537cf56255168df4,2021-08-05_23h26.06.219,Agingstudy,2020.2.10,MacIntel,60,,,,,E,,,,,,,,,,,,,,,1,1,0.1334,0,75,75,75,1,1,OLD,OLD,,,,,,,,
,,,,,,,,,,,,,,,,TestWords/MO_PU_DAY.wav,,60fcd8df537cf56255168df4,2021-08-05_23h26.06.219,Agingstudy,2020.2.10,MacIntel,60,,,,,E,,,,,,,,,,,,,,,1,0,0.1186,0,76,76,76,1,2,NEW,SIMILAR,,,,,,,,
,,,,,,,,,,,,,,,,TestWords/GA_MU_ZI.wav,,60fcd8df537cf56255168df4,2021-08-05_23h26.06.219,Agingstudy,2020.2.10,MacIntel,60,,,,,E,,,,,,,,,,,,,,,1,1,0.059,0,77,77,77,1,1,OLD,OLD,,,,,,,,
,,,,,,,,,,,,,,,,TestWords/KO_SU_FAI.wav,,60fcd8df537cf56255168df4,2021-08-05_23h26.06.219,Agingstudy,2020.2.10,MacIntel,60,,,,,E,,,,,,,,,,,,,,,1,1,1.7301,0,78,78,78,1,1,OLD,OLD,,,,,,,,
,,,,,,,,,,,,,,,,TestWords/NO_WA_BAY.wav,,60fcd8df537cf56255168df4,2021-08-05_23h26.06.219,Agingstudy,2020.2.10,MacIntel,60,,,,,E,,,,,,,,,,,,,,,2,1,0.387,0,79,79,79,1,2,NEW,NEW,,,,,,,,
,,,,,,,,,,,,,,,,TestWords/KAI_LAY_TA.wav,,60fcd8df537cf56255168df4,2021-08-05_23h26.06.219,Agingstudy,2020.2.10,MacIntel,60,,,,,E,,,,,,,,,,,,,,,1,1,0.1908,0,80,80,80,1,1,OLD,OLD,,,,,,,,
,,,,,,,,,,,,,,,,TestWords/RAY_PA_TI.wav,,60fcd8df537cf56255168df4,2021-08-05_23h26.06.219,Agingstudy,2020.2.10,MacIntel,60,,,,,E,,,,,,,,,,,,,,,1,1,0.2345,0,81,81,81,1,1,OLD,OLD,,,,,,,,
,,,,,,,,,,,,,,,,TestWords/RAI_ZO_FU.wav,,60fcd8df537cf56255168df4,2021-08-05_23h26.06.219,Agingstudy,2020.2.10,MacIntel,60,,,,,E,,,,,,,,,,,,,,,1,0,0.3598,0,82,82,82,1,2,NEW,SIMILAR,,,,,,,,
,,,,,,,,,,,,,,,,TestWords/DAI_RU_CHI.wav,,60fcd8df537cf56255168df4,2021-08-05_23h26.06.219,Agingstudy,2020.2.10,MacIntel,60,,,,,E,,,,,,,,,,,,,,,2,0,0.1207,0,83,83,83,1,1,OLD,OLD,,,,,,,,
,,,,,,,,,,,,,,,,TestWords/HA_SI_JAI.wav,,60fcd8df537cf56255168df4,2021-08-05_23h26.06.219,Agingstudy,2020.2.10,MacIntel,60,,,,,E,,,,,,,,,,,,,,,2,1,0.2876,0,84,84,84,1,2,NEW,NEW,,,,,,,,
,,,,,,,,,,,,,,,,TestWords/KO_SU_FAI.wav,,60fcd8df537cf56255168df4,2021-08-05_23h26.06.219,Agingstudy,2020.2.10,MacIntel,60,,,,,E,,,,,,,,,,,,,,,2,0,0.1548,0,85,85,85,1,1,OLD,OLD,,,,,,,,
,,,,,,,,,,,,,,,,TestWords/KAI_LAY_TA.wav,,60fcd8df537cf56255168df4,2021-08-05_23h26.06.219,Agingstudy,2020.2.10,MacIntel,60,,,,,E,,,,,,,,,,,,,,,1,1,0.3015,0,86,86,86,1,1,OLD,OLD,,,,,,,,
,,,,,,,,,,,,,,,,TestWords/GA_MU_ZI.wav,,60fcd8df537cf56255168df4,2021-08-05_23h26.06.219,Agingstudy,2020.2.10,MacIntel,60,,,,,E,,,,,,,,,,,,,,,1,1,0.4652,0,87,87,87,1,1,OLD,OLD,,,,,,,,
,,,,,,,,,,,,,,,,TestWords/FU_ZO_RAI.wav,,60fcd8df537cf56255168df4,2021-08-05_23h26.06.219,Agingstudy,2020.2.10,MacIntel,60,,,,,E,,,,,,,,,,,,,,,2,1,0.2399,0,88,88,88,1,2,NEW,SIMILAR,,,,,,,,
,,,,,,,,,,,,,,,,TestWords/KO_SU_FAI.wav,,60fcd8df537cf56255168df4,2021-08-05_23h26.06.219,Agingstudy,2020.2.10,MacIntel,60,,,,,E,,,,,,,,,,,,,,,1,1,0.0764,0,89,89,89,1,1,OLD,OLD,,,,,,,,
,,,,,,,,,,,,,,,,TestWords/KAI_LAY_TA.wav,,60fcd8df537cf56255168df4,2021-08-05_23h26.06.219,Agingstudy,2020.2.10,MacIntel,60,,,,,E,,,,,,,,,,,,,,,2,0,0.0324,0,90,90,90,1,1,OLD,OLD,,,,,,,,
,,,,,,,,,,,,,,,,TestWords/DAI_RU_CHI.wav,,60fcd8df537cf56255168df4,2021-08-05_23h26.06.219,Agingstudy,2020.2.10,MacIntel,60,,,,,E,,,,,,,,,,,,,,,1,1,0.0325,0,91,91,91,1,1,OLD,OLD,,,,,,,,
,,,,,,,,,,,,,,,,TestWords/HI_NAY_VA.wav,,60fcd8df537cf56255168df4,2021-08-05_23h26.06.219,Agingstudy,2020.2.10,MacIntel,60,,,,,E,,,,,,,,,,,,,,,1,0,0.0338,0,92,92,92,1,2,NEW,NEW,,,,,,,,
,,,,,,,,,,,,,,,,TestWords/GU_CHAI_PI.wav,,60fcd8df537cf56255168df4,2021-08-05_23h26.06.219,Agingstudy,2020.2.10,MacIntel,60,,,,,E,,,,,,,,,,,,,,,1,0,1.1881,0,93,93,93,1,2,NEW,NEW,,,,,,,,
,,,,,,,,,,,,,,,,TestWords/FU_RAI_ZO.wav,,60fcd8df537cf56255168df4,2021-08-05_23h26.06.219,Agingstudy,2020.2.10,MacIntel,60,,,,,E,,,,,,,,,,,,,,,2,1,0.9002,0,94,94,94,1,2,NEW,SIMILAR,,,,,,,,
,,,,,,,,,,,,,,,,TestWords/KO_SU_FAI.wav,,60fcd8df537cf56255168df4,2021-08-05_23h26.06.219,Agingstudy,2020.2.10,MacIntel,60,,,,,E,,,,,,,,,,,,,,,1,1,0.1207,0,95,95,95,1,1,OLD,OLD,,,,,,,,
,,,,,,,,,,,,,,,,TestWords/PAI_LU_WA.wav,,60fcd8df537cf56255168df4,2021-08-05_23h26.06.219,Agingstudy,2020.2.10,MacIntel,60,,,,,E,,,,,,,,,,,,,,,2,1,0.0223,0,96,96,96,1,2,NEW,NEW,,,,,,,,
,,,,,,,,,,,,,,,,TestWords/DAI_RU_CHI.wav,,60fcd8df537cf56255168df4,2021-08-05_23h26.06.219,Agingstudy,2020.2.10,MacIntel,60,,,,,E,,,,,,,,,,,,,,,2,0,0.5185,0,97,97,97,1,1,OLD,OLD,,,,,,,,
,,,,,,,,,,,,,,,,TestWords/FI_GU_CHA.wav,,60fcd8df537cf56255168df4,2021-08-05_23h26.06.219,Agingstudy,2020.2.10,MacIntel,60,,,,,E,,,,,,,,,,,,,,,2,1,0.0772,0,98,98,98,1,2,NEW,NEW,,,,,,,,
,,,,,,,,,,,,,,,,TestWords/ZO_FU_RAI.wav,,60fcd8df537cf56255168df4,2021-08-05_23h26.06.219,Agingstudy,2020.2.10,MacIntel,60,,,,,E,,,,,,,,,,,,,,,1,0,0.3898,0,99,99,99,1,2,NEW,SIMILAR,,,,,,,,
,,,,,,,,,,,,,,,,,,60fcd8df537cf56255168df4,2021-08-05_23h26.06.219,Agingstudy,2020.2.10,MacIntel,60,,,,,,,,,,,,,,,,,,,,,,,,,,,,,,,0,0,0,0,1,,,
,,,,,,,,,,,,,,,,,,60fcd8df537cf56255168df4,2021-08-05_23h26.06.219,Agingstudy,2020.2.10,MacIntel,60,,,,,,,,,,,,,,,,,,,,,,,,,,,,,,,,,,,,return,15.4692,
