Welcome0Continue.keys,Welcome0Continue.rt,SoundCheckBegin.keys,SoundCheckBegin.rt,SoundCheckEndKey.keys,SoundCheckEndKey.rt,HeadphoneContinueKey.keys,HeadphoneContinueKey.rt,CheckResp.keys,CheckResp.corr,CheckResp.rt,HeadphoneLoop.thisRepN,HeadphoneLoop.thisTrialN,HeadphoneLoop.thisN,HeadphoneLoop.thisIndex,HeadphoneLoop.ran,File,Correct,participant,date,expName,psychopyVersion,OS,frameRate,ContinueKey8.keys,ContinueKey8.rt,MSTWelcomeContKey.keys,MSTWelcomeContKey.rt,Condition,MSTTrainIntroKey.keys,MSTTrainIntroKey.rt,MSTTrainKeys.keys,MSTTrainKeys.corr,MSTTrainKeys.rt,MSTTrainLoop.thisRepN,MSTTrainLoop.thisTrialN,MSTTrainLoop.thisN,MSTTrainLoop.thisIndex,MSTTrainLoop.ran,SoundFile,Type,MSTTestBeginKey.keys,MSTTestBeginKey.rt,MST_resp.keys,MST_resp.corr,MST_resp.rt,MSTPlayLoop.thisRepN,MSTPlayLoop.thisTrialN,MSTPlayLoop.thisN,MSTPlayLoop.thisIndex,MSTPlayLoop.ran,WordCorrect,Correct_type,WordType,MSTLoop.thisRepN,MSTLoop.thisTrialN,MSTLoop.thisN,MSTLoop.thisIndex,MSTLoop.ran,EndAllKey.keys,EndAllKey.rt,FeedbackResp.text
space,5.611,space,5.1495,space,6.1974,space,8.6095,2,1,3.6581,0,0,0,3,1,Headphone/t2_2.wav,2,60fca770ebb5c3e25251c752,2021-08-05_21h27.42.309,Agingstudy,2020.2.10,MacIntel,60,,,,,,,,,,,,,,,,,,,,,,,,,,,,,,,,,,,,,,
,,,,,,,,1,1,1.1412,0,1,1,1,1,Headphone/t1_2.wav,1,60fca770ebb5c3e25251c752,2021-08-05_21h27.42.309,Agingstudy,2020.2.10,MacIntel,60,,,,,,,,,,,,,,,,,,,,,,,,,,,,,,,,,,,,,,
,,,,,,,,3,1,1.0204,0,2,2,5,1,Headphone/t3_2.wav,3,60fca770ebb5c3e25251c752,2021-08-05_21h27.42.309,Agingstudy,2020.2.10,MacIntel,60,,,,,,,,,,,,,,,,,,,,,,,,,,,,,,,,,,,,,,
,,,,,,,,1,1,0.6997,0,3,3,0,1,Headphone/t1_1.wav,1,60fca770ebb5c3e25251c752,2021-08-05_21h27.42.309,Agingstudy,2020.2.10,MacIntel,60,,,,,,,,,,,,,,,,,,,,,,,,,,,,,,,,,,,,,,
,,,,,,,,2,1,0.8385,0,4,4,2,1,Headphone/t2_1.wav,2,60fca770ebb5c3e25251c752,2021-08-05_21h27.42.309,Agingstudy,2020.2.10,MacIntel,60,,,,,,,,,,,,,,,,,,,,,,,,,,,,,,,,,,,,,,
,,,,,,,,3,1,0.685,0,5,5,4,1,Headphone/t3_1.wav,3,60fca770ebb5c3e25251c752,2021-08-05_21h27.42.309,Agingstudy,2020.2.10,MacIntel,60,,,,,,,,,,,,,,,,,,,,,,,,,,,,,,,,,,,,,,
,,,,,,,,,,,,,,,,,2,60fca770ebb5c3e25251c752,2021-08-05_21h27.42.309,Agingstudy,2020.2.10,MacIntel,60,space,27.992,space,6.098,1,space,4.6007,2,1,4.2061,0,0,0,0,1,Training/FO_YI_LAY.wav,NEW,,,,,,,,,,,,,,,,,,,,,
,,,,,,,,,,,,,,,,,1,60fca770ebb5c3e25251c752,2021-08-05_21h27.42.309,Agingstudy,2020.2.10,MacIntel,60,,,,,,,,1,1,5.337,0,1,1,1,1,Training/FO_YI_LAY.wav,OLD,,,,,,,,,,,,,,,,,,,,,
,,,,,,,,,,,,,,,,,2,60fca770ebb5c3e25251c752,2021-08-05_21h27.42.309,Agingstudy,2020.2.10,MacIntel,60,,,,,,,,2,1,1.9435,0,2,2,2,1,Training/YO_BU_JAY.wav,NEW,,,,,,,,,,,,,,,,,,,,,
,,,,,,,,,,,,,,,,,2,60fca770ebb5c3e25251c752,2021-08-05_21h27.42.309,Agingstudy,2020.2.10,MacIntel,60,,,,,,,,2,1,2.0153,0,3,3,3,1,Training/JAY_YO_BU.wav,SIMILAR,,,,,,,,,,,,,,,,,,,,,
,,,,,,,,,,,,,,,,,1,60fca770ebb5c3e25251c752,2021-08-05_21h27.42.309,Agingstudy,2020.2.10,MacIntel,60,,,,,,,,1,1,1.7919,0,4,4,4,1,Training/FO_YI_LAY.wav,OLD,,,,,,,,,,,,,,,,,,,,,
,,,,,,,,,,,,,,,,TestWords/LU_HAI_BO.wav,,60fca770ebb5c3e25251c752,2021-08-05_21h27.42.309,Agingstudy,2020.2.10,MacIntel,60,,,,,B,,,,,,,,,,,,,space,5.4726,2,1,3.036,0,0,0,0,1,2,NEW,NEW,,,,,,,,
,,,,,,,,,,,,,,,,TestWords/CHU_LA_PAY.wav,,60fca770ebb5c3e25251c752,2021-08-05_21h27.42.309,Agingstudy,2020.2.10,MacIntel,60,,,,,B,,,,,,,,,,,,,,,2,1,1.6399,0,1,1,1,1,2,NEW,NEW,,,,,,,,
,,,,,,,,,,,,,,,,TestWords/RAY_PA_TI.wav,,60fca770ebb5c3e25251c752,2021-08-05_21h27.42.309,Agingstudy,2020.2.10,MacIntel,60,,,,,B,,,,,,,,,,,,,,,2,1,0.9551,0,2,2,2,1,2,NEW,NEW,,,,,,,,
,,,,,,,,,,,,,,,,TestWords/DA_CHU_VAI.wav,,60fca770ebb5c3e25251c752,2021-08-05_21h27.42.309,Agingstudy,2020.2.10,MacIntel,60,,,,,B,,,,,,,,,,,,,,,2,1,1.0992,0,3,3,3,1,2,NEW,NEW,,,,,,,,
,,,,,,,,,,,,,,,,TestWords/DAY_PU_MO.wav,,60fca770ebb5c3e25251c752,2021-08-05_21h27.42.309,Agingstudy,2020.2.10,MacIntel,60,,,,,B,,,,,,,,,,,,,,,1,0,5.5246,0,4,4,4,1,2,NEW,NEW,,,,,,,,
,,,,,,,,,,,,,,,,TestWords/DAI_RU_CHI.wav,,60fca770ebb5c3e25251c752,2021-08-05_21h27.42.309,Agingstudy,2020.2.10,MacIntel,60,,,,,B,,,,,,,,,,,,,,,1,0,1.5159,0,5,5,5,1,2,NEW,NEW,,,,,,,,
,,,,,,,,,,,,,,,,TestWords/RAI_ZO_FU.wav,,60fca770ebb5c3e25251c752,2021-08-05_21h27.42.309,Agingstudy,2020.2.10,MacIntel,60,,,,,B,,,,,,,,,,,,,,,2,1,1.0807,0,6,6,6,1,2,NEW,NEW,,,,,,,,
,,,,,,,,,,,,,,,,TestWords/HO_NAY_VA.wav,,60fca770ebb5c3e25251c752,2021-08-05_21h27.42.309,Agingstudy,2020.2.10,MacIntel,60,,,,,B,,,,,,,,,,,,,,,2,1,2.4948,0,7,7,7,1,2,NEW,NEW,,,,,,,,
,,,,,,,,,,,,,,,,TestWords/RAY_PA_TI.wav,,60fca770ebb5c3e25251c752,2021-08-05_21h27.42.309,Agingstudy,2020.2.10,MacIntel,60,,,,,B,,,,,,,,,,,,,,,1,1,1.5411,0,8,8,8,1,1,OLD,OLD,,,,,,,,
,,,,,,,,,,,,,,,,TestWords/DAY_MO_PU.wav,,60fca770ebb5c3e25251c752,2021-08-05_21h27.42.309,Agingstudy,2020.2.10,MacIntel,60,,,,,B,,,,,,,,,,,,,,,1,0,1.1516,0,9,9,9,1,2,NEW,SIMILAR,,,,,,,,
,,,,,,,,,,,,,,,,TestWords/TAI_SA_GI.wav,,60fca770ebb5c3e25251c752,2021-08-05_21h27.42.309,Agingstudy,2020.2.10,MacIntel,60,,,,,B,,,,,,,,,,,,,,,2,1,1.4329,0,10,10,10,1,2,NEW,NEW,,,,,,,,
,,,,,,,,,,,,,,,,TestWords/DAI_RU_CHI.wav,,60fca770ebb5c3e25251c752,2021-08-05_21h27.42.309,Agingstudy,2020.2.10,MacIntel,60,,,,,B,,,,,,,,,,,,,,,2,0,1.218,0,11,11,11,1,1,OLD,OLD,,,,,,,,
,,,,,,,,,,,,,,,,TestWords/GA_MU_ZI.wav,,60fca770ebb5c3e25251c752,2021-08-05_21h27.42.309,Agingstudy,2020.2.10,MacIntel,60,,,,,B,,,,,,,,,,,,,,,1,0,2.0288,0,12,12,12,1,2,NEW,NEW,,,,,,,,
,,,,,,,,,,,,,,,,TestWords/ZO_RAI_FU.wav,,60fca770ebb5c3e25251c752,2021-08-05_21h27.42.309,Agingstudy,2020.2.10,MacIntel,60,,,,,B,,,,,,,,,,,,,,,1,0,1.3057,0,13,13,13,1,2,NEW,SIMILAR,,,,,,,,
,,,,,,,,,,,,,,,,TestWords/RAY_PA_TI.wav,,60fca770ebb5c3e25251c752,2021-08-05_21h27.42.309,Agingstudy,2020.2.10,MacIntel,60,,,,,B,,,,,,,,,,,,,,,1,1,1.0533,0,14,14,14,1,1,OLD,OLD,,,,,,,,
,,,,,,,,,,,,,,,,TestWords/FI_GU_CHA.wav,,60fca770ebb5c3e25251c752,2021-08-05_21h27.42.309,Agingstudy,2020.2.10,MacIntel,60,,,,,B,,,,,,,,,,,,,,,1,0,1.2585,0,15,15,15,1,2,NEW,NEW,,,,,,,,
,,,,,,,,,,,,,,,,TestWords/MO_DAY_PU.wav,,60fca770ebb5c3e25251c752,2021-08-05_21h27.42.309,Agingstudy,2020.2.10,MacIntel,60,,,,,B,,,,,,,,,,,,,,,1,0,0.9935,0,16,16,16,1,2,NEW,SIMILAR,,,,,,,,
,,,,,,,,,,,,,,,,TestWords/GI_SA_TAI.wav,,60fca770ebb5c3e25251c752,2021-08-05_21h27.42.309,Agingstudy,2020.2.10,MacIntel,60,,,,,B,,,,,,,,,,,,,,,1,0,1.1714,0,17,17,17,1,2,NEW,SIMILAR,,,,,,,,
,,,,,,,,,,,,,,,,TestWords/FU_RAI_ZO.wav,,60fca770ebb5c3e25251c752,2021-08-05_21h27.42.309,Agingstudy,2020.2.10,MacIntel,60,,,,,B,,,,,,,,,,,,,,,1,0,1.8887,0,18,18,18,1,2,NEW,SIMILAR,,,,,,,,
,,,,,,,,,,,,,,,,TestWords/DAI_RU_CHI.wav,,60fca770ebb5c3e25251c752,2021-08-05_21h27.42.309,Agingstudy,2020.2.10,MacIntel,60,,,,,B,,,,,,,,,,,,,,,1,1,0.831,0,19,19,19,1,1,OLD,OLD,,,,,,,,
,,,,,,,,,,,,,,,,TestWords/KO_SU_FAI.wav,,60fca770ebb5c3e25251c752,2021-08-05_21h27.42.309,Agingstudy,2020.2.10,MacIntel,60,,,,,B,,,,,,,,,,,,,,,2,1,0.9666,0,20,20,20,1,2,NEW,NEW,,,,,,,,
,,,,,,,,,,,,,,,,TestWords/GA_MU_ZI.wav,,60fca770ebb5c3e25251c752,2021-08-05_21h27.42.309,Agingstudy,2020.2.10,MacIntel,60,,,,,B,,,,,,,,,,,,,,,1,1,1.175,0,21,21,21,1,1,OLD,OLD,,,,,,,,
,,,,,,,,,,,,,,,,TestWords/RAY_PA_TI.wav,,60fca770ebb5c3e25251c752,2021-08-05_21h27.42.309,Agingstudy,2020.2.10,MacIntel,60,,,,,B,,,,,,,,,,,,,,,1,1,1.1159,0,22,22,22,1,1,OLD,OLD,,,,,,,,
,,,,,,,,,,,,,,,,TestWords/PU_DAY_MO.wav,,60fca770ebb5c3e25251c752,2021-08-05_21h27.42.309,Agingstudy,2020.2.10,MacIntel,60,,,,,B,,,,,,,,,,,,,,,2,1,1.8247,0,23,23,23,1,2,NEW,SIMILAR,,,,,,,,
,,,,,,,,,,,,,,,,TestWords/GI_TAI_SA.wav,,60fca770ebb5c3e25251c752,2021-08-05_21h27.42.309,Agingstudy,2020.2.10,MacIntel,60,,,,,B,,,,,,,,,,,,,,,2,1,1.0694,0,24,24,24,1,2,NEW,SIMILAR,,,,,,,,
,,,,,,,,,,,,,,,,TestWords/KO_SU_FAI.wav,,60fca770ebb5c3e25251c752,2021-08-05_21h27.42.309,Agingstudy,2020.2.10,MacIntel,60,,,,,B,,,,,,,,,,,,,,,2,0,1.3868,0,25,25,25,1,1,OLD,OLD,,,,,,,,
,,,,,,,,,,,,,,,,TestWords/FU_ZO_RAI.wav,,60fca770ebb5c3e25251c752,2021-08-05_21h27.42.309,Agingstudy,2020.2.10,MacIntel,60,,,,,B,,,,,,,,,,,,,,,1,0,1.5849,0,26,26,26,1,2,NEW,SIMILAR,,,,,,,,
,,,,,,,,,,,,,,,,TestWords/DAI_RU_CHI.wav,,60fca770ebb5c3e25251c752,2021-08-05_21h27.42.309,Agingstudy,2020.2.10,MacIntel,60,,,,,B,,,,,,,,,,,,,,,1,1,1.0718,0,27,27,27,1,1,OLD,OLD,,,,,,,,
,,,,,,,,,,,,,,,,TestWords/RAY_PA_TI.wav,,60fca770ebb5c3e25251c752,2021-08-05_21h27.42.309,Agingstudy,2020.2.10,MacIntel,60,,,,,B,,,,,,,,,,,,,,,1,1,0.8027,0,28,28,28,1,1,OLD,OLD,,,,,,,,
,,,,,,,,,,,,,,,,TestWords/GA_MU_ZI.wav,,60fca770ebb5c3e25251c752,2021-08-05_21h27.42.309,Agingstudy,2020.2.10,MacIntel,60,,,,,B,,,,,,,,,,,,,,,1,1,0.8854,0,29,29,29,1,1,OLD,OLD,,,,,,,,
,,,,,,,,,,,,,,,,TestWords/WAI_VU_NA.wav,,60fca770ebb5c3e25251c752,2021-08-05_21h27.42.309,Agingstudy,2020.2.10,MacIntel,60,,,,,B,,,,,,,,,,,,,,,2,1,2.0178,0,30,30,30,1,2,NEW,NEW,,,,,,,,
,,,,,,,,,,,,,,,,TestWords/SA_TAI_GI.wav,,60fca770ebb5c3e25251c752,2021-08-05_21h27.42.309,Agingstudy,2020.2.10,MacIntel,60,,,,,B,,,,,,,,,,,,,,,1,0,1.667,0,31,31,31,1,2,NEW,SIMILAR,,,,,,,,
,,,,,,,,,,,,,,,,TestWords/PU_MO_DAY.wav,,60fca770ebb5c3e25251c752,2021-08-05_21h27.42.309,Agingstudy,2020.2.10,MacIntel,60,,,,,B,,,,,,,,,,,,,,,1,0,1.3987,0,32,32,32,1,2,NEW,SIMILAR,,,,,,,,
,,,,,,,,,,,,,,,,TestWords/KO_SU_FAI.wav,,60fca770ebb5c3e25251c752,2021-08-05_21h27.42.309,Agingstudy,2020.2.10,MacIntel,60,,,,,B,,,,,,,,,,,,,,,1,1,1.2354,0,33,33,33,1,1,OLD,OLD,,,,,,,,
,,,,,,,,,,,,,,,,TestWords/RAI_FU_ZO.wav,,60fca770ebb5c3e25251c752,2021-08-05_21h27.42.309,Agingstudy,2020.2.10,MacIntel,60,,,,,B,,,,,,,,,,,,,,,1,0,1.5186,0,34,34,34,1,2,NEW,SIMILAR,,,,,,,,
,,,,,,,,,,,,,,,,TestWords/KAI_LAY_TA.wav,,60fca770ebb5c3e25251c752,2021-08-05_21h27.42.309,Agingstudy,2020.2.10,MacIntel,60,,,,,B,,,,,,,,,,,,,,,2,1,1.2507,0,35,35,35,1,2,NEW,NEW,,,,,,,,
,,,,,,,,,,,,,,,,TestWords/RAY_PA_TI.wav,,60fca770ebb5c3e25251c752,2021-08-05_21h27.42.309,Agingstudy,2020.2.10,MacIntel,60,,,,,B,,,,,,,,,,,,,,,1,1,1.1526,0,36,36,36,1,1,OLD,OLD,,,,,,,,
,,,,,,,,,,,,,,,,TestWords/WAI_NA_VU.wav,,60fca770ebb5c3e25251c752,2021-08-05_21h27.42.309,Agingstudy,2020.2.10,MacIntel,60,,,,,B,,,,,,,,,,,,,,,1,0,1.5302,0,37,37,37,1,2,NEW,SIMILAR,,,,,,,,
,,,,,,,,,,,,,,,,TestWords/GA_MU_ZI.wav,,60fca770ebb5c3e25251c752,2021-08-05_21h27.42.309,Agingstudy,2020.2.10,MacIntel,60,,,,,B,,,,,,,,,,,,,,,1,1,1.6697,0,38,38,38,1,1,OLD,OLD,,,,,,,,
,,,,,,,,,,,,,,,,TestWords/MO_PU_DAY.wav,,60fca770ebb5c3e25251c752,2021-08-05_21h27.42.309,Agingstudy,2020.2.10,MacIntel,60,,,,,B,,,,,,,,,,,,,,,1,0,1.7363,0,39,39,39,1,2,NEW,SIMILAR,,,,,,,,
,,,,,,,,,,,,,,,,TestWords/DAI_RU_CHI.wav,,60fca770ebb5c3e25251c752,2021-08-05_21h27.42.309,Agingstudy,2020.2.10,MacIntel,60,,,,,B,,,,,,,,,,,,,,,1,1,1.1674,0,40,40,40,1,1,OLD,OLD,,,,,,,,
,,,,,,,,,,,,,,,,TestWords/SA_GI_TAI.wav,,60fca770ebb5c3e25251c752,2021-08-05_21h27.42.309,Agingstudy,2020.2.10,MacIntel,60,,,,,B,,,,,,,,,,,,,,,1,0,1.8847,0,41,41,41,1,2,NEW,SIMILAR,,,,,,,,
,,,,,,,,,,,,,,,,TestWords/KO_SU_FAI.wav,,60fca770ebb5c3e25251c752,2021-08-05_21h27.42.309,Agingstudy,2020.2.10,MacIntel,60,,,,,B,,,,,,,,,,,,,,,1,1,1.6192,0,42,42,42,1,1,OLD,OLD,,,,,,,,
,,,,,,,,,,,,,,,,TestWords/ZO_FU_RAI.wav,,60fca770ebb5c3e25251c752,2021-08-05_21h27.42.309,Agingstudy,2020.2.10,MacIntel,60,,,,,B,,,,,,,,,,,,,,,1,0,1.3837,0,43,43,43,1,2,NEW,SIMILAR,,,,,,,,
,,,,,,,,,,,,,,,,TestWords/KAI_LAY_TA.wav,,60fca770ebb5c3e25251c752,2021-08-05_21h27.42.309,Agingstudy,2020.2.10,MacIntel,60,,,,,B,,,,,,,,,,,,,,,1,1,1.335,0,44,44,44,1,1,OLD,OLD,,,,,,,,
,,,,,,,,,,,,,,,,TestWords/RAY_PA_TI.wav,,60fca770ebb5c3e25251c752,2021-08-05_21h27.42.309,Agingstudy,2020.2.10,MacIntel,60,,,,,B,,,,,,,,,,,,,,,1,1,1.135,0,45,45,45,1,1,OLD,OLD,,,,,,,,
,,,,,,,,,,,,,,,,TestWords/DAI_RU_CHI.wav,,60fca770ebb5c3e25251c752,2021-08-05_21h27.42.309,Agingstudy,2020.2.10,MacIntel,60,,,,,B,,,,,,,,,,,,,,,2,0,2.6025,0,46,46,46,1,1,OLD,OLD,,,,,,,,
,,,,,,,,,,,,,,,,TestWords/VU_NA_WAI.wav,,60fca770ebb5c3e25251c752,2021-08-05_21h27.42.309,Agingstudy,2020.2.10,MacIntel,60,,,,,B,,,,,,,,,,,,,,,2,1,1.2186,0,47,47,47,1,2,NEW,SIMILAR,,,,,,,,
,,,,,,,,,,,,,,,,TestWords/TAI_GI_SA.wav,,60fca770ebb5c3e25251c752,2021-08-05_21h27.42.309,Agingstudy,2020.2.10,MacIntel,60,,,,,B,,,,,,,,,,,,,,,2,1,3.5181,0,48,48,48,1,2,NEW,SIMILAR,,,,,,,,
,,,,,,,,,,,,,,,,TestWords/GA_MU_ZI.wav,,60fca770ebb5c3e25251c752,2021-08-05_21h27.42.309,Agingstudy,2020.2.10,MacIntel,60,,,,,B,,,,,,,,,,,,,,,1,1,1.4676,0,49,49,49,1,1,OLD,OLD,,,,,,,,
,,,,,,,,,,,,,,,,TestWords/KO_SU_FAI.wav,,60fca770ebb5c3e25251c752,2021-08-05_21h27.42.309,Agingstudy,2020.2.10,MacIntel,60,,,,,B,,,,,,,,,,,,,,,2,0,2.6671,0,50,50,50,1,1,OLD,OLD,,,,,,,,
,,,,,,,,,,,,,,,,TestWords/KAI_LAY_TA.wav,,60fca770ebb5c3e25251c752,2021-08-05_21h27.42.309,Agingstudy,2020.2.10,MacIntel,60,,,,,B,,,,,,,,,,,,,,,1,1,1.9328,0,51,51,51,1,1,OLD,OLD,,,,,,,,
,,,,,,,,,,,,,,,,TestWords/HA_SI_JAI.wav,,60fca770ebb5c3e25251c752,2021-08-05_21h27.42.309,Agingstudy,2020.2.10,MacIntel,60,,,,,B,,,,,,,,,,,,,,,2,1,1.4843,0,52,52,52,1,2,NEW,NEW,,,,,,,,
,,,,,,,,,,,,,,,,TestWords/RAY_PA_TI.wav,,60fca770ebb5c3e25251c752,2021-08-05_21h27.42.309,Agingstudy,2020.2.10,MacIntel,60,,,,,B,,,,,,,,,,,,,,,1,1,1.5684,0,53,53,53,1,1,OLD,OLD,,,,,,,,
,,,,,,,,,,,,,,,,TestWords/VU_WAI_NA.wav,,60fca770ebb5c3e25251c752,2021-08-05_21h27.42.309,Agingstudy,2020.2.10,MacIntel,60,,,,,B,,,,,,,,,,,,,,,1,0,1.485,0,54,54,54,1,2,NEW,SIMILAR,,,,,,,,
,,,,,,,,,,,,,,,,TestWords/DAI_RU_CHI.wav,,60fca770ebb5c3e25251c752,2021-08-05_21h27.42.309,Agingstudy,2020.2.10,MacIntel,60,,,,,B,,,,,,,,,,,,,,,1,1,1.4723,0,55,55,55,1,1,OLD,OLD,,,,,,,,
,,,,,,,,,,,,,,,,TestWords/GA_MU_ZI.wav,,60fca770ebb5c3e25251c752,2021-08-05_21h27.42.309,Agingstudy,2020.2.10,MacIntel,60,,,,,B,,,,,,,,,,,,,,,1,1,1.9666,0,56,56,56,1,1,OLD,OLD,,,,,,,,
,,,,,,,,,,,,,,,,TestWords/KAI_LAY_TA.wav,,60fca770ebb5c3e25251c752,2021-08-05_21h27.42.309,Agingstudy,2020.2.10,MacIntel,60,,,,,B,,,,,,,,,,,,,,,1,1,1.9823,0,57,57,57,1,1,OLD,OLD,,,,,,,,
,,,,,,,,,,,,,,,,TestWords/NU_CHAY_SO.wav,,60fca770ebb5c3e25251c752,2021-08-05_21h27.42.309,Agingstudy,2020.2.10,MacIntel,60,,,,,B,,,,,,,,,,,,,,,2,1,2.2339,0,58,58,58,1,2,NEW,NEW,,,,,,,,
,,,,,,,,,,,,,,,,TestWords/KO_SU_FAI.wav,,60fca770ebb5c3e25251c752,2021-08-05_21h27.42.309,Agingstudy,2020.2.10,MacIntel,60,,,,,B,,,,,,,,,,,,,,,2,0,10.0868,0,59,59,59,1,1,OLD,OLD,,,,,,,,
,,,,,,,,,,,,,,,,TestWords/RAY_PA_TI.wav,,60fca770ebb5c3e25251c752,2021-08-05_21h27.42.309,Agingstudy,2020.2.10,MacIntel,60,,,,,B,,,,,,,,,,,,,,,1,1,1.3862,0,60,60,60,1,1,OLD,OLD,,,,,,,,
,,,,,,,,,,,,,,,,TestWords/BA_KAY_LI.wav,,60fca770ebb5c3e25251c752,2021-08-05_21h27.42.309,Agingstudy,2020.2.10,MacIntel,60,,,,,B,,,,,,,,,,,,,,,2,1,1.1163,0,61,61,61,1,2,NEW,NEW,,,,,,,,
,,,,,,,,,,,,,,,,TestWords/KAI_LAY_TA.wav,,60fca770ebb5c3e25251c752,2021-08-05_21h27.42.309,Agingstudy,2020.2.10,MacIntel,60,,,,,B,,,,,,,,,,,,,,,2,0,2.05,0,62,62,62,1,1,OLD,OLD,,,,,,,,
,,,,,,,,,,,,,,,,TestWords/NA_VU_WAI.wav,,60fca770ebb5c3e25251c752,2021-08-05_21h27.42.309,Agingstudy,2020.2.10,MacIntel,60,,,,,B,,,,,,,,,,,,,,,2,1,1.352,0,63,63,63,1,2,NEW,SIMILAR,,,,,,,,
,,,,,,,,,,,,,,,,TestWords/GA_MU_ZI.wav,,60fca770ebb5c3e25251c752,2021-08-05_21h27.42.309,Agingstudy,2020.2.10,MacIntel,60,,,,,B,,,,,,,,,,,,,,,1,1,1.0411,0,64,64,64,1,1,OLD,OLD,,,,,,,,
,,,,,,,,,,,,,,,,TestWords/KO_SU_FAI.wav,,60fca770ebb5c3e25251c752,2021-08-05_21h27.42.309,Agingstudy,2020.2.10,MacIntel,60,,,,,B,,,,,,,,,,,,,,,1,1,1.5683,0,65,65,65,1,1,OLD,OLD,,,,,,,,
,,,,,,,,,,,,,,,,TestWords/DAI_RU_CHI.wav,,60fca770ebb5c3e25251c752,2021-08-05_21h27.42.309,Agingstudy,2020.2.10,MacIntel,60,,,,,B,,,,,,,,,,,,,,,1,1,1.1869,0,66,66,66,1,1,OLD,OLD,,,,,,,,
,,,,,,,,,,,,,,,,TestWords/GU_CHAI_PI.wav,,60fca770ebb5c3e25251c752,2021-08-05_21h27.42.309,Agingstudy,2020.2.10,MacIntel,60,,,,,B,,,,,,,,,,,,,,,2,1,1.9195,0,67,67,67,1,2,NEW,NEW,,,,,,,,
,,,,,,,,,,,,,,,,TestWords/RAY_PA_TI.wav,,60fca770ebb5c3e25251c752,2021-08-05_21h27.42.309,Agingstudy,2020.2.10,MacIntel,60,,,,,B,,,,,,,,,,,,,,,1,1,1.3454,0,68,68,68,1,1,OLD,OLD,,,,,,,,
,,,,,,,,,,,,,,,,TestWords/KAY_LI_BA.wav,,60fca770ebb5c3e25251c752,2021-08-05_21h27.42.309,Agingstudy,2020.2.10,MacIntel,60,,,,,B,,,,,,,,,,,,,,,2,1,1.685,0,69,69,69,1,2,NEW,SIMILAR,,,,,,,,
,,,,,,,,,,,,,,,,TestWords/KAI_LAY_TA.wav,,60fca770ebb5c3e25251c752,2021-08-05_21h27.42.309,Agingstudy,2020.2.10,MacIntel,60,,,,,B,,,,,,,,,,,,,,,1,1,1.6435,0,70,70,70,1,1,OLD,OLD,,,,,,,,
,,,,,,,,,,,,,,,,TestWords/KO_SU_FAI.wav,,60fca770ebb5c3e25251c752,2021-08-05_21h27.42.309,Agingstudy,2020.2.10,MacIntel,60,,,,,B,,,,,,,,,,,,,,,1,1,1.7,0,71,71,71,1,1,OLD,OLD,,,,,,,,
,,,,,,,,,,,,,,,,TestWords/DAI_RU_CHI.wav,,60fca770ebb5c3e25251c752,2021-08-05_21h27.42.309,Agingstudy,2020.2.10,MacIntel,60,,,,,B,,,,,,,,,,,,,,,1,1,1.2355,0,72,72,72,1,1,OLD,OLD,,,,,,,,
,,,,,,,,,,,,,,,,TestWords/NA_WAI_VU.wav,,60fca770ebb5c3e25251c752,2021-08-05_21h27.42.309,Agingstudy,2020.2.10,MacIntel,60,,,,,B,,,,,,,,,,,,,,,1,0,1.2992,0,73,73,73,1,2,NEW,SIMILAR,,,,,,,,
,,,,,,,,,,,,,,,,TestWords/GA_MU_ZI.wav,,60fca770ebb5c3e25251c752,2021-08-05_21h27.42.309,Agingstudy,2020.2.10,MacIntel,60,,,,,B,,,,,,,,,,,,,,,1,1,1.3767,0,74,74,74,1,1,OLD,OLD,,,,,,,,
,,,,,,,,,,,,,,,,TestWords/KAY_BA_LI.wav,,60fca770ebb5c3e25251c752,2021-08-05_21h27.42.309,Agingstudy,2020.2.10,MacIntel,60,,,,,B,,,,,,,,,,,,,,,1,0,1.7457,0,75,75,75,1,2,NEW,SIMILAR,,,,,,,,
,,,,,,,,,,,,,,,,TestWords/WAI_RO_JU.wav,,60fca770ebb5c3e25251c752,2021-08-05_21h27.42.309,Agingstudy,2020.2.10,MacIntel,60,,,,,B,,,,,,,,,,,,,,,2,1,1.8079,0,76,76,76,1,2,NEW,NEW,,,,,,,,
,,,,,,,,,,,,,,,,TestWords/RAY_PA_TI.wav,,60fca770ebb5c3e25251c752,2021-08-05_21h27.42.309,Agingstudy,2020.2.10,MacIntel,60,,,,,B,,,,,,,,,,,,,,,1,1,1.251,0,77,77,77,1,1,OLD,OLD,,,,,,,,
,,,,,,,,,,,,,,,,TestWords/KAI_LAY_TA.wav,,60fca770ebb5c3e25251c752,2021-08-05_21h27.42.309,Agingstudy,2020.2.10,MacIntel,60,,,,,B,,,,,,,,,,,,,,,2,0,3.5176,0,78,78,78,1,1,OLD,OLD,,,,,,,,
,,,,,,,,,,,,,,,,TestWords/HI_NAY_VA.wav,,60fca770ebb5c3e25251c752,2021-08-05_21h27.42.309,Agingstudy,2020.2.10,MacIntel,60,,,,,B,,,,,,,,,,,,,,,2,1,1.3674,0,79,79,79,1,2,NEW,NEW,,,,,,,,
,,,,,,,,,,,,,,,,TestWords/KO_SU_FAI.wav,,60fca770ebb5c3e25251c752,2021-08-05_21h27.42.309,Agingstudy,2020.2.10,MacIntel,60,,,,,B,,,,,,,,,,,,,,,2,0,2.8731,0,80,80,80,1,1,OLD,OLD,,,,,,,,
,,,,,,,,,,,,,,,,TestWords/GA_MU_ZI.wav,,60fca770ebb5c3e25251c752,2021-08-05_21h27.42.309,Agingstudy,2020.2.10,MacIntel,60,,,,,B,,,,,,,,,,,,,,,1,1,1.2665,0,81,81,81,1,1,OLD,OLD,,,,,,,,
,,,,,,,,,,,,,,,,TestWords/KAI_LAY_TA.wav,,60fca770ebb5c3e25251c752,2021-08-05_21h27.42.309,Agingstudy,2020.2.10,MacIntel,60,,,,,B,,,,,,,,,,,,,,,1,1,1.18,0,82,82,82,1,1,OLD,OLD,,,,,,,,
,,,,,,,,,,,,,,,,TestWords/LI_BA_KAY.wav,,60fca770ebb5c3e25251c752,2021-08-05_21h27.42.309,Agingstudy,2020.2.10,MacIntel,60,,,,,B,,,,,,,,,,,,,,,2,1,1.3002,0,83,83,83,1,2,NEW,SIMILAR,,,,,,,,
,,,,,,,,,,,,,,,,TestWords/DAI_RU_CHI.wav,,60fca770ebb5c3e25251c752,2021-08-05_21h27.42.309,Agingstudy,2020.2.10,MacIntel,60,,,,,B,,,,,,,,,,,,,,,1,1,1.2659,0,84,84,84,1,1,OLD,OLD,,,,,,,,
,,,,,,,,,,,,,,,,TestWords/KO_SU_FAI.wav,,60fca770ebb5c3e25251c752,2021-08-05_21h27.42.309,Agingstudy,2020.2.10,MacIntel,60,,,,,B,,,,,,,,,,,,,,,1,1,1.4515,0,85,85,85,1,1,OLD,OLD,,,,,,,,
,,,,,,,,,,,,,,,,TestWords/NO_WA_BAY.wav,,60fca770ebb5c3e25251c752,2021-08-05_21h27.42.309,Agingstudy,2020.2.10,MacIntel,60,,,,,B,,,,,,,,,,,,,,,2,1,1.0838,0,86,86,86,1,2,NEW,NEW,,,,,,,,
,,,,,,,,,,,,,,,,TestWords/KAI_LAY_TA.wav,,60fca770ebb5c3e25251c752,2021-08-05_21h27.42.309,Agingstudy,2020.2.10,MacIntel,60,,,,,B,,,,,,,,,,,,,,,1,1,1.1826,0,87,87,87,1,1,OLD,OLD,,,,,,,,
,,,,,,,,,,,,,,,,TestWords/GA_MU_ZI.wav,,60fca770ebb5c3e25251c752,2021-08-05_21h27.42.309,Agingstudy,2020.2.10,MacIntel,60,,,,,B,,,,,,,,,,,,,,,1,1,1.3179,0,88,88,88,1,1,OLD,OLD,,,,,,,,
,,,,,,,,,,,,,,,,TestWords/DAI_RU_CHI.wav,,60fca770ebb5c3e25251c752,2021-08-05_21h27.42.309,Agingstudy,2020.2.10,MacIntel,60,,,,,B,,,,,,,,,,,,,,,1,1,1.6675,0,89,89,89,1,1,OLD,OLD,,,,,,,,
,,,,,,,,,,,,,,,,TestWords/LA_ZAY_CHAI.wav,,60fca770ebb5c3e25251c752,2021-08-05_21h27.42.309,Agingstudy,2020.2.10,MacIntel,60,,,,,B,,,,,,,,,,,,,,,2,1,1.5086,0,90,90,90,1,2,NEW,NEW,,,,,,,,
,,,,,,,,,,,,,,,,TestWords/BA_LI_KAY.wav,,60fca770ebb5c3e25251c752,2021-08-05_21h27.42.309,Agingstudy,2020.2.10,MacIntel,60,,,,,B,,,,,,,,,,,,,,,2,1,1.4591,0,91,91,91,1,2,NEW,SIMILAR,,,,,,,,
,,,,,,,,,,,,,,,,TestWords/PAI_LU_WA.wav,,60fca770ebb5c3e25251c752,2021-08-05_21h27.42.309,Agingstudy,2020.2.10,MacIntel,60,,,,,B,,,,,,,,,,,,,,,2,1,1.1092,0,92,92,92,1,2,NEW,NEW,,,,,,,,
,,,,,,,,,,,,,,,,TestWords/KO_SU_FAI.wav,,60fca770ebb5c3e25251c752,2021-08-05_21h27.42.309,Agingstudy,2020.2.10,MacIntel,60,,,,,B,,,,,,,,,,,,,,,1,1,3.2265,0,93,93,93,1,1,OLD,OLD,,,,,,,,
,,,,,,,,,,,,,,,,TestWords/KAI_LAY_TA.wav,,60fca770ebb5c3e25251c752,2021-08-05_21h27.42.309,Agingstudy,2020.2.10,MacIntel,60,,,,,B,,,,,,,,,,,,,,,1,1,1.5188,0,94,94,94,1,1,OLD,OLD,,,,,,,,
,,,,,,,,,,,,,,,,TestWords/VAI_HO_LA.wav,,60fca770ebb5c3e25251c752,2021-08-05_21h27.42.309,Agingstudy,2020.2.10,MacIntel,60,,,,,B,,,,,,,,,,,,,,,2,1,1.3166,0,95,95,95,1,2,NEW,NEW,,,,,,,,
,,,,,,,,,,,,,,,,TestWords/GA_MU_ZI.wav,,60fca770ebb5c3e25251c752,2021-08-05_21h27.42.309,Agingstudy,2020.2.10,MacIntel,60,,,,,B,,,,,,,,,,,,,,,1,1,2.1173,0,96,96,96,1,1,OLD,OLD,,,,,,,,
,,,,,,,,,,,,,,,,TestWords/LI_KAY_BA.wav,,60fca770ebb5c3e25251c752,2021-08-05_21h27.42.309,Agingstudy,2020.2.10,MacIntel,60,,,,,B,,,,,,,,,,,,,,,1,0,1.7504,0,97,97,97,1,2,NEW,SIMILAR,,,,,,,,
,,,,,,,,,,,,,,,,TestWords/KAI_LAY_TA.wav,,60fca770ebb5c3e25251c752,2021-08-05_21h27.42.309,Agingstudy,2020.2.10,MacIntel,60,,,,,B,,,,,,,,,,,,,,,1,1,1.1842,0,98,98,98,1,1,OLD,OLD,,,,,,,,
,,,,,,,,,,,,,,,,TestWords/SI_VAI_CHU.wav,,60fca770ebb5c3e25251c752,2021-08-05_21h27.42.309,Agingstudy,2020.2.10,MacIntel,60,,,,,B,,,,,,,,,,,,,,,2,1,1.3167,0,99,99,99,1,2,NEW,NEW,,,,,,,,
,,,,,,,,,,,,,,,,,,60fca770ebb5c3e25251c752,2021-08-05_21h27.42.309,Agingstudy,2020.2.10,MacIntel,60,,,,,,,,,,,,,,,,,,,,,,,,,,,,,,,0,0,0,0,1,,,
,,,,,,,,,,,,,,,,,,60fca770ebb5c3e25251c752,2021-08-05_21h27.42.309,Agingstudy,2020.2.10,MacIntel,60,,,,,,,,,,,,,,,,,,,,,,,,,,,,,,,,,,,,return,18.2025,
