Welcome0Continue.keys,Welcome0Continue.rt,SoundCheckBegin.keys,SoundCheckBegin.rt,SoundCheckEndKey.keys,SoundCheckEndKey.rt,HeadphoneContinueKey.keys,HeadphoneContinueKey.rt,CheckResp.keys,CheckResp.corr,CheckResp.rt,HeadphoneLoop.thisRepN,HeadphoneLoop.thisTrialN,HeadphoneLoop.thisN,HeadphoneLoop.thisIndex,HeadphoneLoop.ran,File,Correct,participant,date,expName,psychopyVersion,OS,frameRate,ContinueKey8.keys,ContinueKey8.rt,MSTWelcomeContKey.keys,MSTWelcomeContKey.rt,Condition,MSTTrainIntroKey.keys,MSTTrainIntroKey.rt,MSTTrainKeys.keys,MSTTrainKeys.corr,MSTTrainKeys.rt,MSTTrainLoop.thisRepN,MSTTrainLoop.thisTrialN,MSTTrainLoop.thisN,MSTTrainLoop.thisIndex,MSTTrainLoop.ran,SoundFile,Type,MSTTestBeginKey.keys,MSTTestBeginKey.rt,MST_resp.keys,MST_resp.corr,MST_resp.rt,MSTPlayLoop.thisRepN,MSTPlayLoop.thisTrialN,MSTPlayLoop.thisN,MSTPlayLoop.thisIndex,MSTPlayLoop.ran,WordCorrect,Correct_type,WordType,MSTLoop.thisRepN,MSTLoop.thisTrialN,MSTLoop.thisN,MSTLoop.thisIndex,MSTLoop.ran,EndAllKey.keys,EndAllKey.rt,FeedbackResp.text
space,8.5539,space,6.2517,space,6.0459,space,10.135,2,1,2.2106,0,0,0,2,1,Headphone/t2_1.wav,2,60fdffba8b4ce4607c9db7b5,2021-07-31_20h51.49.437,Agingstudy,2020.2.10,MacIntel,60,,,,,,,,,,,,,,,,,,,,,,,,,,,,,,,,,,,,,,
,,,,,,,,2,1,0.9827,0,1,1,3,1,Headphone/t2_2.wav,2,60fdffba8b4ce4607c9db7b5,2021-07-31_20h51.49.437,Agingstudy,2020.2.10,MacIntel,60,,,,,,,,,,,,,,,,,,,,,,,,,,,,,,,,,,,,,,
,,,,,,,,1,1,1.7518,0,2,2,1,1,Headphone/t1_2.wav,1,60fdffba8b4ce4607c9db7b5,2021-07-31_20h51.49.437,Agingstudy,2020.2.10,MacIntel,60,,,,,,,,,,,,,,,,,,,,,,,,,,,,,,,,,,,,,,
,,,,,,,,3,1,0.702,0,3,3,5,1,Headphone/t3_2.wav,3,60fdffba8b4ce4607c9db7b5,2021-07-31_20h51.49.437,Agingstudy,2020.2.10,MacIntel,60,,,,,,,,,,,,,,,,,,,,,,,,,,,,,,,,,,,,,,
,,,,,,,,1,1,0.851,0,4,4,0,1,Headphone/t1_1.wav,1,60fdffba8b4ce4607c9db7b5,2021-07-31_20h51.49.437,Agingstudy,2020.2.10,MacIntel,60,,,,,,,,,,,,,,,,,,,,,,,,,,,,,,,,,,,,,,
,,,,,,,,3,1,0.8006,0,5,5,4,1,Headphone/t3_1.wav,3,60fdffba8b4ce4607c9db7b5,2021-07-31_20h51.49.437,Agingstudy,2020.2.10,MacIntel,60,,,,,,,,,,,,,,,,,,,,,,,,,,,,,,,,,,,,,,
,,,,,,,,,,,,,,,,,2,60fdffba8b4ce4607c9db7b5,2021-07-31_20h51.49.437,Agingstudy,2020.2.10,MacIntel,60,space,22.1813,space,0.0672,1,space,4.5371,2,1,6.6046,0,0,0,0,1,Training/FO_YI_LAY.wav,NEW,,,,,,,,,,,,,,,,,,,,,
,,,,,,,,,,,,,,,,,1,60fdffba8b4ce4607c9db7b5,2021-07-31_20h51.49.437,Agingstudy,2020.2.10,MacIntel,60,,,,,,,,1,1,1.8164,0,1,1,1,1,Training/FO_YI_LAY.wav,OLD,,,,,,,,,,,,,,,,,,,,,
,,,,,,,,,,,,,,,,,2,60fdffba8b4ce4607c9db7b5,2021-07-31_20h51.49.437,Agingstudy,2020.2.10,MacIntel,60,,,,,,,,2,1,1.1101,0,2,2,2,1,Training/YO_BU_JAY.wav,NEW,,,,,,,,,,,,,,,,,,,,,
,,,,,,,,,,,,,,,,,2,60fdffba8b4ce4607c9db7b5,2021-07-31_20h51.49.437,Agingstudy,2020.2.10,MacIntel,60,,,,,,,,2,1,1.2278,0,3,3,3,1,Training/JAY_YO_BU.wav,SIMILAR,,,,,,,,,,,,,,,,,,,,,
,,,,,,,,,,,,,,,,,1,60fdffba8b4ce4607c9db7b5,2021-07-31_20h51.49.437,Agingstudy,2020.2.10,MacIntel,60,,,,,,,,1,1,1.2578,0,4,4,4,1,Training/FO_YI_LAY.wav,OLD,,,,,,,,,,,,,,,,,,,,,
,,,,,,,,,,,,,,,,TestWords/LU_HAI_BO.wav,,60fdffba8b4ce4607c9db7b5,2021-07-31_20h51.49.437,Agingstudy,2020.2.10,MacIntel,60,,,,,B,,,,,,,,,,,,,space,7.7663,2,1,3.5834,0,0,0,0,1,2,NEW,NEW,,,,,,,,
,,,,,,,,,,,,,,,,TestWords/CHU_LA_PAY.wav,,60fdffba8b4ce4607c9db7b5,2021-07-31_20h51.49.437,Agingstudy,2020.2.10,MacIntel,60,,,,,B,,,,,,,,,,,,,,,2,1,1.2026,0,1,1,1,1,2,NEW,NEW,,,,,,,,
,,,,,,,,,,,,,,,,TestWords/RAY_PA_TI.wav,,60fdffba8b4ce4607c9db7b5,2021-07-31_20h51.49.437,Agingstudy,2020.2.10,MacIntel,60,,,,,B,,,,,,,,,,,,,,,2,1,0.9682,0,2,2,2,1,2,NEW,NEW,,,,,,,,
,,,,,,,,,,,,,,,,TestWords/DA_CHU_VAI.wav,,60fdffba8b4ce4607c9db7b5,2021-07-31_20h51.49.437,Agingstudy,2020.2.10,MacIntel,60,,,,,B,,,,,,,,,,,,,,,2,1,0.8515,0,3,3,3,1,2,NEW,NEW,,,,,,,,
,,,,,,,,,,,,,,,,TestWords/DAY_PU_MO.wav,,60fdffba8b4ce4607c9db7b5,2021-07-31_20h51.49.437,Agingstudy,2020.2.10,MacIntel,60,,,,,B,,,,,,,,,,,,,,,2,1,0.8008,0,4,4,4,1,2,NEW,NEW,,,,,,,,
,,,,,,,,,,,,,,,,TestWords/DAI_RU_CHI.wav,,60fdffba8b4ce4607c9db7b5,2021-07-31_20h51.49.437,Agingstudy,2020.2.10,MacIntel,60,,,,,B,,,,,,,,,,,,,,,2,1,1.2346,0,5,5,5,1,2,NEW,NEW,,,,,,,,
,,,,,,,,,,,,,,,,TestWords/RAI_ZO_FU.wav,,60fdffba8b4ce4607c9db7b5,2021-07-31_20h51.49.437,Agingstudy,2020.2.10,MacIntel,60,,,,,B,,,,,,,,,,,,,,,2,1,1.0502,0,6,6,6,1,2,NEW,NEW,,,,,,,,
,,,,,,,,,,,,,,,,TestWords/HO_NAY_VA.wav,,60fdffba8b4ce4607c9db7b5,2021-07-31_20h51.49.437,Agingstudy,2020.2.10,MacIntel,60,,,,,B,,,,,,,,,,,,,,,2,1,0.7349,0,7,7,7,1,2,NEW,NEW,,,,,,,,
,,,,,,,,,,,,,,,,TestWords/RAY_PA_TI.wav,,60fdffba8b4ce4607c9db7b5,2021-07-31_20h51.49.437,Agingstudy,2020.2.10,MacIntel,60,,,,,B,,,,,,,,,,,,,,,2,0,2.9997,0,8,8,8,1,1,OLD,OLD,,,,,,,,
,,,,,,,,,,,,,,,,TestWords/DAY_MO_PU.wav,,60fdffba8b4ce4607c9db7b5,2021-07-31_20h51.49.437,Agingstudy,2020.2.10,MacIntel,60,,,,,B,,,,,,,,,,,,,,,2,1,1.651,0,9,9,9,1,2,NEW,SIMILAR,,,,,,,,
,,,,,,,,,,,,,,,,TestWords/TAI_SA_GI.wav,,60fdffba8b4ce4607c9db7b5,2021-07-31_20h51.49.437,Agingstudy,2020.2.10,MacIntel,60,,,,,B,,,,,,,,,,,,,,,2,1,1.4183,0,10,10,10,1,2,NEW,NEW,,,,,,,,
,,,,,,,,,,,,,,,,TestWords/DAI_RU_CHI.wav,,60fdffba8b4ce4607c9db7b5,2021-07-31_20h51.49.437,Agingstudy,2020.2.10,MacIntel,60,,,,,B,,,,,,,,,,,,,,,2,0,1.2007,0,11,11,11,1,1,OLD,OLD,,,,,,,,
,,,,,,,,,,,,,,,,TestWords/GA_MU_ZI.wav,,60fdffba8b4ce4607c9db7b5,2021-07-31_20h51.49.437,Agingstudy,2020.2.10,MacIntel,60,,,,,B,,,,,,,,,,,,,,,2,1,1.5865,0,12,12,12,1,2,NEW,NEW,,,,,,,,
,,,,,,,,,,,,,,,,TestWords/ZO_RAI_FU.wav,,60fdffba8b4ce4607c9db7b5,2021-07-31_20h51.49.437,Agingstudy,2020.2.10,MacIntel,60,,,,,B,,,,,,,,,,,,,,,2,1,6.234,0,13,13,13,1,2,NEW,SIMILAR,,,,,,,,
,,,,,,,,,,,,,,,,TestWords/RAY_PA_TI.wav,,60fdffba8b4ce4607c9db7b5,2021-07-31_20h51.49.437,Agingstudy,2020.2.10,MacIntel,60,,,,,B,,,,,,,,,,,,,,,1,1,1.7841,0,14,14,14,1,1,OLD,OLD,,,,,,,,
,,,,,,,,,,,,,,,,TestWords/FI_GU_CHA.wav,,60fdffba8b4ce4607c9db7b5,2021-07-31_20h51.49.437,Agingstudy,2020.2.10,MacIntel,60,,,,,B,,,,,,,,,,,,,,,2,1,0.8353,0,15,15,15,1,2,NEW,NEW,,,,,,,,
,,,,,,,,,,,,,,,,TestWords/MO_DAY_PU.wav,,60fdffba8b4ce4607c9db7b5,2021-07-31_20h51.49.437,Agingstudy,2020.2.10,MacIntel,60,,,,,B,,,,,,,,,,,,,,,2,1,1.2238,0,16,16,16,1,2,NEW,SIMILAR,,,,,,,,
,,,,,,,,,,,,,,,,TestWords/GI_SA_TAI.wav,,60fdffba8b4ce4607c9db7b5,2021-07-31_20h51.49.437,Agingstudy,2020.2.10,MacIntel,60,,,,,B,,,,,,,,,,,,,,,2,1,0.873,0,17,17,17,1,2,NEW,SIMILAR,,,,,,,,
,,,,,,,,,,,,,,,,TestWords/FU_RAI_ZO.wav,,60fdffba8b4ce4607c9db7b5,2021-07-31_20h51.49.437,Agingstudy,2020.2.10,MacIntel,60,,,,,B,,,,,,,,,,,,,,,1,0,0.8898,0,18,18,18,1,2,NEW,SIMILAR,,,,,,,,
,,,,,,,,,,,,,,,,TestWords/DAI_RU_CHI.wav,,60fdffba8b4ce4607c9db7b5,2021-07-31_20h51.49.437,Agingstudy,2020.2.10,MacIntel,60,,,,,B,,,,,,,,,,,,,,,1,1,0.9882,0,19,19,19,1,1,OLD,OLD,,,,,,,,
,,,,,,,,,,,,,,,,TestWords/KO_SU_FAI.wav,,60fdffba8b4ce4607c9db7b5,2021-07-31_20h51.49.437,Agingstudy,2020.2.10,MacIntel,60,,,,,B,,,,,,,,,,,,,,,2,1,0.7756,0,20,20,20,1,2,NEW,NEW,,,,,,,,
,,,,,,,,,,,,,,,,TestWords/GA_MU_ZI.wav,,60fdffba8b4ce4607c9db7b5,2021-07-31_20h51.49.437,Agingstudy,2020.2.10,MacIntel,60,,,,,B,,,,,,,,,,,,,,,1,1,1.0547,0,21,21,21,1,1,OLD,OLD,,,,,,,,
,,,,,,,,,,,,,,,,TestWords/RAY_PA_TI.wav,,60fdffba8b4ce4607c9db7b5,2021-07-31_20h51.49.437,Agingstudy,2020.2.10,MacIntel,60,,,,,B,,,,,,,,,,,,,,,1,1,0.6718,0,22,22,22,1,1,OLD,OLD,,,,,,,,
,,,,,,,,,,,,,,,,TestWords/PU_DAY_MO.wav,,60fdffba8b4ce4607c9db7b5,2021-07-31_20h51.49.437,Agingstudy,2020.2.10,MacIntel,60,,,,,B,,,,,,,,,,,,,,,1,0,0.9754,0,23,23,23,1,2,NEW,SIMILAR,,,,,,,,
,,,,,,,,,,,,,,,,TestWords/GI_TAI_SA.wav,,60fdffba8b4ce4607c9db7b5,2021-07-31_20h51.49.437,Agingstudy,2020.2.10,MacIntel,60,,,,,B,,,,,,,,,,,,,,,2,1,0.7384,0,24,24,24,1,2,NEW,SIMILAR,,,,,,,,
,,,,,,,,,,,,,,,,TestWords/KO_SU_FAI.wav,,60fdffba8b4ce4607c9db7b5,2021-07-31_20h51.49.437,Agingstudy,2020.2.10,MacIntel,60,,,,,B,,,,,,,,,,,,,,,2,0,1.057,0,25,25,25,1,1,OLD,OLD,,,,,,,,
,,,,,,,,,,,,,,,,TestWords/FU_ZO_RAI.wav,,60fdffba8b4ce4607c9db7b5,2021-07-31_20h51.49.437,Agingstudy,2020.2.10,MacIntel,60,,,,,B,,,,,,,,,,,,,,,2,1,1.2071,0,26,26,26,1,2,NEW,SIMILAR,,,,,,,,
,,,,,,,,,,,,,,,,TestWords/DAI_RU_CHI.wav,,60fdffba8b4ce4607c9db7b5,2021-07-31_20h51.49.437,Agingstudy,2020.2.10,MacIntel,60,,,,,B,,,,,,,,,,,,,,,1,1,0.6216,0,27,27,27,1,1,OLD,OLD,,,,,,,,
,,,,,,,,,,,,,,,,TestWords/RAY_PA_TI.wav,,60fdffba8b4ce4607c9db7b5,2021-07-31_20h51.49.437,Agingstudy,2020.2.10,MacIntel,60,,,,,B,,,,,,,,,,,,,,,1,1,0.5554,0,28,28,28,1,1,OLD,OLD,,,,,,,,
,,,,,,,,,,,,,,,,TestWords/GA_MU_ZI.wav,,60fdffba8b4ce4607c9db7b5,2021-07-31_20h51.49.437,Agingstudy,2020.2.10,MacIntel,60,,,,,B,,,,,,,,,,,,,,,1,1,1.0911,0,29,29,29,1,1,OLD,OLD,,,,,,,,
,,,,,,,,,,,,,,,,TestWords/WAI_VU_NA.wav,,60fdffba8b4ce4607c9db7b5,2021-07-31_20h51.49.437,Agingstudy,2020.2.10,MacIntel,60,,,,,B,,,,,,,,,,,,,,,2,1,0.5868,0,30,30,30,1,2,NEW,NEW,,,,,,,,
,,,,,,,,,,,,,,,,TestWords/SA_TAI_GI.wav,,60fdffba8b4ce4607c9db7b5,2021-07-31_20h51.49.437,Agingstudy,2020.2.10,MacIntel,60,,,,,B,,,,,,,,,,,,,,,2,1,1.1061,0,31,31,31,1,2,NEW,SIMILAR,,,,,,,,
,,,,,,,,,,,,,,,,TestWords/PU_MO_DAY.wav,,60fdffba8b4ce4607c9db7b5,2021-07-31_20h51.49.437,Agingstudy,2020.2.10,MacIntel,60,,,,,B,,,,,,,,,,,,,,,2,1,1.4913,0,32,32,32,1,2,NEW,SIMILAR,,,,,,,,
,,,,,,,,,,,,,,,,TestWords/KO_SU_FAI.wav,,60fdffba8b4ce4607c9db7b5,2021-07-31_20h51.49.437,Agingstudy,2020.2.10,MacIntel,60,,,,,B,,,,,,,,,,,,,,,1,1,0.9881,0,33,33,33,1,1,OLD,OLD,,,,,,,,
,,,,,,,,,,,,,,,,TestWords/RAI_FU_ZO.wav,,60fdffba8b4ce4607c9db7b5,2021-07-31_20h51.49.437,Agingstudy,2020.2.10,MacIntel,60,,,,,B,,,,,,,,,,,,,,,1,0,0.8581,0,34,34,34,1,2,NEW,SIMILAR,,,,,,,,
,,,,,,,,,,,,,,,,TestWords/KAI_LAY_TA.wav,,60fdffba8b4ce4607c9db7b5,2021-07-31_20h51.49.437,Agingstudy,2020.2.10,MacIntel,60,,,,,B,,,,,,,,,,,,,,,2,1,0.3891,0,35,35,35,1,2,NEW,NEW,,,,,,,,
,,,,,,,,,,,,,,,,TestWords/RAY_PA_TI.wav,,60fdffba8b4ce4607c9db7b5,2021-07-31_20h51.49.437,Agingstudy,2020.2.10,MacIntel,60,,,,,B,,,,,,,,,,,,,,,1,1,0.6867,0,36,36,36,1,1,OLD,OLD,,,,,,,,
,,,,,,,,,,,,,,,,TestWords/WAI_NA_VU.wav,,60fdffba8b4ce4607c9db7b5,2021-07-31_20h51.49.437,Agingstudy,2020.2.10,MacIntel,60,,,,,B,,,,,,,,,,,,,,,1,0,2.2224,0,37,37,37,1,2,NEW,SIMILAR,,,,,,,,
,,,,,,,,,,,,,,,,TestWords/GA_MU_ZI.wav,,60fdffba8b4ce4607c9db7b5,2021-07-31_20h51.49.437,Agingstudy,2020.2.10,MacIntel,60,,,,,B,,,,,,,,,,,,,,,1,1,0.8397,0,38,38,38,1,1,OLD,OLD,,,,,,,,
,,,,,,,,,,,,,,,,TestWords/MO_PU_DAY.wav,,60fdffba8b4ce4607c9db7b5,2021-07-31_20h51.49.437,Agingstudy,2020.2.10,MacIntel,60,,,,,B,,,,,,,,,,,,,,,2,1,0.6422,0,39,39,39,1,2,NEW,SIMILAR,,,,,,,,
,,,,,,,,,,,,,,,,TestWords/DAI_RU_CHI.wav,,60fdffba8b4ce4607c9db7b5,2021-07-31_20h51.49.437,Agingstudy,2020.2.10,MacIntel,60,,,,,B,,,,,,,,,,,,,,,1,1,0.5744,0,40,40,40,1,1,OLD,OLD,,,,,,,,
,,,,,,,,,,,,,,,,TestWords/SA_GI_TAI.wav,,60fdffba8b4ce4607c9db7b5,2021-07-31_20h51.49.437,Agingstudy,2020.2.10,MacIntel,60,,,,,B,,,,,,,,,,,,,,,2,1,0.4072,0,41,41,41,1,2,NEW,SIMILAR,,,,,,,,
,,,,,,,,,,,,,,,,TestWords/KO_SU_FAI.wav,,60fdffba8b4ce4607c9db7b5,2021-07-31_20h51.49.437,Agingstudy,2020.2.10,MacIntel,60,,,,,B,,,,,,,,,,,,,,,1,1,3.9721,0,42,42,42,1,1,OLD,OLD,,,,,,,,
,,,,,,,,,,,,,,,,TestWords/ZO_FU_RAI.wav,,60fdffba8b4ce4607c9db7b5,2021-07-31_20h51.49.437,Agingstudy,2020.2.10,MacIntel,60,,,,,B,,,,,,,,,,,,,,,1,0,1.8571,0,43,43,43,1,2,NEW,SIMILAR,,,,,,,,
,,,,,,,,,,,,,,,,TestWords/KAI_LAY_TA.wav,,60fdffba8b4ce4607c9db7b5,2021-07-31_20h51.49.437,Agingstudy,2020.2.10,MacIntel,60,,,,,B,,,,,,,,,,,,,,,2,0,0.3381,0,44,44,44,1,1,OLD,OLD,,,,,,,,
,,,,,,,,,,,,,,,,TestWords/RAY_PA_TI.wav,,60fdffba8b4ce4607c9db7b5,2021-07-31_20h51.49.437,Agingstudy,2020.2.10,MacIntel,60,,,,,B,,,,,,,,,,,,,,,1,1,0.6726,0,45,45,45,1,1,OLD,OLD,,,,,,,,
,,,,,,,,,,,,,,,,TestWords/DAI_RU_CHI.wav,,60fdffba8b4ce4607c9db7b5,2021-07-31_20h51.49.437,Agingstudy,2020.2.10,MacIntel,60,,,,,B,,,,,,,,,,,,,,,1,1,0.8408,0,46,46,46,1,1,OLD,OLD,,,,,,,,
,,,,,,,,,,,,,,,,TestWords/VU_NA_WAI.wav,,60fdffba8b4ce4607c9db7b5,2021-07-31_20h51.49.437,Agingstudy,2020.2.10,MacIntel,60,,,,,B,,,,,,,,,,,,,,,2,1,0.5709,0,47,47,47,1,2,NEW,SIMILAR,,,,,,,,
,,,,,,,,,,,,,,,,TestWords/TAI_GI_SA.wav,,60fdffba8b4ce4607c9db7b5,2021-07-31_20h51.49.437,Agingstudy,2020.2.10,MacIntel,60,,,,,B,,,,,,,,,,,,,,,1,0,1.958,0,48,48,48,1,2,NEW,SIMILAR,,,,,,,,
,,,,,,,,,,,,,,,,TestWords/GA_MU_ZI.wav,,60fdffba8b4ce4607c9db7b5,2021-07-31_20h51.49.437,Agingstudy,2020.2.10,MacIntel,60,,,,,B,,,,,,,,,,,,,,,1,1,0.5716,0,49,49,49,1,1,OLD,OLD,,,,,,,,
,,,,,,,,,,,,,,,,TestWords/KO_SU_FAI.wav,,60fdffba8b4ce4607c9db7b5,2021-07-31_20h51.49.437,Agingstudy,2020.2.10,MacIntel,60,,,,,B,,,,,,,,,,,,,,,1,1,1.2927,0,50,50,50,1,1,OLD,OLD,,,,,,,,
,,,,,,,,,,,,,,,,TestWords/KAI_LAY_TA.wav,,60fdffba8b4ce4607c9db7b5,2021-07-31_20h51.49.437,Agingstudy,2020.2.10,MacIntel,60,,,,,B,,,,,,,,,,,,,,,2,0,1.9049,0,51,51,51,1,1,OLD,OLD,,,,,,,,
,,,,,,,,,,,,,,,,TestWords/HA_SI_JAI.wav,,60fdffba8b4ce4607c9db7b5,2021-07-31_20h51.49.437,Agingstudy,2020.2.10,MacIntel,60,,,,,B,,,,,,,,,,,,,,,2,1,0.8711,0,52,52,52,1,2,NEW,NEW,,,,,,,,
,,,,,,,,,,,,,,,,TestWords/RAY_PA_TI.wav,,60fdffba8b4ce4607c9db7b5,2021-07-31_20h51.49.437,Agingstudy,2020.2.10,MacIntel,60,,,,,B,,,,,,,,,,,,,,,1,1,0.6731,0,53,53,53,1,1,OLD,OLD,,,,,,,,
,,,,,,,,,,,,,,,,TestWords/VU_WAI_NA.wav,,60fdffba8b4ce4607c9db7b5,2021-07-31_20h51.49.437,Agingstudy,2020.2.10,MacIntel,60,,,,,B,,,,,,,,,,,,,,,1,0,1.4741,0,54,54,54,1,2,NEW,SIMILAR,,,,,,,,
,,,,,,,,,,,,,,,,TestWords/DAI_RU_CHI.wav,,60fdffba8b4ce4607c9db7b5,2021-07-31_20h51.49.437,Agingstudy,2020.2.10,MacIntel,60,,,,,B,,,,,,,,,,,,,,,1,1,0.6715,0,55,55,55,1,1,OLD,OLD,,,,,,,,
,,,,,,,,,,,,,,,,TestWords/GA_MU_ZI.wav,,60fdffba8b4ce4607c9db7b5,2021-07-31_20h51.49.437,Agingstudy,2020.2.10,MacIntel,60,,,,,B,,,,,,,,,,,,,,,1,1,1.2674,0,56,56,56,1,1,OLD,OLD,,,,,,,,
,,,,,,,,,,,,,,,,TestWords/KAI_LAY_TA.wav,,60fdffba8b4ce4607c9db7b5,2021-07-31_20h51.49.437,Agingstudy,2020.2.10,MacIntel,60,,,,,B,,,,,,,,,,,,,,,1,1,0.9249,0,57,57,57,1,1,OLD,OLD,,,,,,,,
,,,,,,,,,,,,,,,,TestWords/NU_CHAY_SO.wav,,60fdffba8b4ce4607c9db7b5,2021-07-31_20h51.49.437,Agingstudy,2020.2.10,MacIntel,60,,,,,B,,,,,,,,,,,,,,,2,1,0.4375,0,58,58,58,1,2,NEW,NEW,,,,,,,,
,,,,,,,,,,,,,,,,TestWords/KO_SU_FAI.wav,,60fdffba8b4ce4607c9db7b5,2021-07-31_20h51.49.437,Agingstudy,2020.2.10,MacIntel,60,,,,,B,,,,,,,,,,,,,,,1,1,0.7674,0,59,59,59,1,1,OLD,OLD,,,,,,,,
,,,,,,,,,,,,,,,,TestWords/RAY_PA_TI.wav,,60fdffba8b4ce4607c9db7b5,2021-07-31_20h51.49.437,Agingstudy,2020.2.10,MacIntel,60,,,,,B,,,,,,,,,,,,,,,1,1,0.6547,0,60,60,60,1,1,OLD,OLD,,,,,,,,
,,,,,,,,,,,,,,,,TestWords/BA_KAY_LI.wav,,60fdffba8b4ce4607c9db7b5,2021-07-31_20h51.49.437,Agingstudy,2020.2.10,MacIntel,60,,,,,B,,,,,,,,,,,,,,,2,1,1.271,0,61,61,61,1,2,NEW,NEW,,,,,,,,
,,,,,,,,,,,,,,,,TestWords/KAI_LAY_TA.wav,,60fdffba8b4ce4607c9db7b5,2021-07-31_20h51.49.437,Agingstudy,2020.2.10,MacIntel,60,,,,,B,,,,,,,,,,,,,,,1,1,0.6876,0,62,62,62,1,1,OLD,OLD,,,,,,,,
,,,,,,,,,,,,,,,,TestWords/NA_VU_WAI.wav,,60fdffba8b4ce4607c9db7b5,2021-07-31_20h51.49.437,Agingstudy,2020.2.10,MacIntel,60,,,,,B,,,,,,,,,,,,,,,2,1,1.3376,0,63,63,63,1,2,NEW,SIMILAR,,,,,,,,
,,,,,,,,,,,,,,,,TestWords/GA_MU_ZI.wav,,60fdffba8b4ce4607c9db7b5,2021-07-31_20h51.49.437,Agingstudy,2020.2.10,MacIntel,60,,,,,B,,,,,,,,,,,,,,,1,1,0.488,0,64,64,64,1,1,OLD,OLD,,,,,,,,
,,,,,,,,,,,,,,,,TestWords/KO_SU_FAI.wav,,60fdffba8b4ce4607c9db7b5,2021-07-31_20h51.49.437,Agingstudy,2020.2.10,MacIntel,60,,,,,B,,,,,,,,,,,,,,,1,1,0.7081,0,65,65,65,1,1,OLD,OLD,,,,,,,,
,,,,,,,,,,,,,,,,TestWords/DAI_RU_CHI.wav,,60fdffba8b4ce4607c9db7b5,2021-07-31_20h51.49.437,Agingstudy,2020.2.10,MacIntel,60,,,,,B,,,,,,,,,,,,,,,1,1,0.7076,0,66,66,66,1,1,OLD,OLD,,,,,,,,
,,,,,,,,,,,,,,,,TestWords/GU_CHAI_PI.wav,,60fdffba8b4ce4607c9db7b5,2021-07-31_20h51.49.437,Agingstudy,2020.2.10,MacIntel,60,,,,,B,,,,,,,,,,,,,,,2,1,0.7892,0,67,67,67,1,2,NEW,NEW,,,,,,,,
,,,,,,,,,,,,,,,,TestWords/RAY_PA_TI.wav,,60fdffba8b4ce4607c9db7b5,2021-07-31_20h51.49.437,Agingstudy,2020.2.10,MacIntel,60,,,,,B,,,,,,,,,,,,,,,1,1,0.6733,0,68,68,68,1,1,OLD,OLD,,,,,,,,
,,,,,,,,,,,,,,,,TestWords/KAY_LI_BA.wav,,60fdffba8b4ce4607c9db7b5,2021-07-31_20h51.49.437,Agingstudy,2020.2.10,MacIntel,60,,,,,B,,,,,,,,,,,,,,,2,1,0.653,0,69,69,69,1,2,NEW,SIMILAR,,,,,,,,
,,,,,,,,,,,,,,,,TestWords/KAI_LAY_TA.wav,,60fdffba8b4ce4607c9db7b5,2021-07-31_20h51.49.437,Agingstudy,2020.2.10,MacIntel,60,,,,,B,,,,,,,,,,,,,,,1,1,0.3034,0,70,70,70,1,1,OLD,OLD,,,,,,,,
,,,,,,,,,,,,,,,,TestWords/KO_SU_FAI.wav,,60fdffba8b4ce4607c9db7b5,2021-07-31_20h51.49.437,Agingstudy,2020.2.10,MacIntel,60,,,,,B,,,,,,,,,,,,,,,1,1,0.975,0,71,71,71,1,1,OLD,OLD,,,,,,,,
,,,,,,,,,,,,,,,,TestWords/DAI_RU_CHI.wav,,60fdffba8b4ce4607c9db7b5,2021-07-31_20h51.49.437,Agingstudy,2020.2.10,MacIntel,60,,,,,B,,,,,,,,,,,,,,,1,1,1.3532,0,72,72,72,1,1,OLD,OLD,,,,,,,,
,,,,,,,,,,,,,,,,TestWords/NA_WAI_VU.wav,,60fdffba8b4ce4607c9db7b5,2021-07-31_20h51.49.437,Agingstudy,2020.2.10,MacIntel,60,,,,,B,,,,,,,,,,,,,,,2,1,0.6918,0,73,73,73,1,2,NEW,SIMILAR,,,,,,,,
,,,,,,,,,,,,,,,,TestWords/GA_MU_ZI.wav,,60fdffba8b4ce4607c9db7b5,2021-07-31_20h51.49.437,Agingstudy,2020.2.10,MacIntel,60,,,,,B,,,,,,,,,,,,,,,1,1,0.5359,0,74,74,74,1,1,OLD,OLD,,,,,,,,
,,,,,,,,,,,,,,,,TestWords/KAY_BA_LI.wav,,60fdffba8b4ce4607c9db7b5,2021-07-31_20h51.49.437,Agingstudy,2020.2.10,MacIntel,60,,,,,B,,,,,,,,,,,,,,,2,1,0.8561,0,75,75,75,1,2,NEW,SIMILAR,,,,,,,,
,,,,,,,,,,,,,,,,TestWords/WAI_RO_JU.wav,,60fdffba8b4ce4607c9db7b5,2021-07-31_20h51.49.437,Agingstudy,2020.2.10,MacIntel,60,,,,,B,,,,,,,,,,,,,,,2,1,0.658,0,76,76,76,1,2,NEW,NEW,,,,,,,,
,,,,,,,,,,,,,,,,TestWords/RAY_PA_TI.wav,,60fdffba8b4ce4607c9db7b5,2021-07-31_20h51.49.437,Agingstudy,2020.2.10,MacIntel,60,,,,,B,,,,,,,,,,,,,,,1,1,0.3223,0,77,77,77,1,1,OLD,OLD,,,,,,,,
,,,,,,,,,,,,,,,,TestWords/KAI_LAY_TA.wav,,60fdffba8b4ce4607c9db7b5,2021-07-31_20h51.49.437,Agingstudy,2020.2.10,MacIntel,60,,,,,B,,,,,,,,,,,,,,,1,1,1.739,0,78,78,78,1,1,OLD,OLD,,,,,,,,
,,,,,,,,,,,,,,,,TestWords/HI_NAY_VA.wav,,60fdffba8b4ce4607c9db7b5,2021-07-31_20h51.49.437,Agingstudy,2020.2.10,MacIntel,60,,,,,B,,,,,,,,,,,,,,,1,0,0.9747,0,79,79,79,1,2,NEW,NEW,,,,,,,,
,,,,,,,,,,,,,,,,TestWords/KO_SU_FAI.wav,,60fdffba8b4ce4607c9db7b5,2021-07-31_20h51.49.437,Agingstudy,2020.2.10,MacIntel,60,,,,,B,,,,,,,,,,,,,,,1,1,1.0388,0,80,80,80,1,1,OLD,OLD,,,,,,,,
,,,,,,,,,,,,,,,,TestWords/GA_MU_ZI.wav,,60fdffba8b4ce4607c9db7b5,2021-07-31_20h51.49.437,Agingstudy,2020.2.10,MacIntel,60,,,,,B,,,,,,,,,,,,,,,1,1,0.2881,0,81,81,81,1,1,OLD,OLD,,,,,,,,
,,,,,,,,,,,,,,,,TestWords/KAI_LAY_TA.wav,,60fdffba8b4ce4607c9db7b5,2021-07-31_20h51.49.437,Agingstudy,2020.2.10,MacIntel,60,,,,,B,,,,,,,,,,,,,,,1,1,0.5212,0,82,82,82,1,1,OLD,OLD,,,,,,,,
,,,,,,,,,,,,,,,,TestWords/LI_BA_KAY.wav,,60fdffba8b4ce4607c9db7b5,2021-07-31_20h51.49.437,Agingstudy,2020.2.10,MacIntel,60,,,,,B,,,,,,,,,,,,,,,2,1,0.4057,0,83,83,83,1,2,NEW,SIMILAR,,,,,,,,
,,,,,,,,,,,,,,,,TestWords/DAI_RU_CHI.wav,,60fdffba8b4ce4607c9db7b5,2021-07-31_20h51.49.437,Agingstudy,2020.2.10,MacIntel,60,,,,,B,,,,,,,,,,,,,,,1,1,0.1901,0,84,84,84,1,1,OLD,OLD,,,,,,,,
,,,,,,,,,,,,,,,,TestWords/KO_SU_FAI.wav,,60fdffba8b4ce4607c9db7b5,2021-07-31_20h51.49.437,Agingstudy,2020.2.10,MacIntel,60,,,,,B,,,,,,,,,,,,,,,1,1,4.9578,0,85,85,85,1,1,OLD,OLD,,,,,,,,
,,,,,,,,,,,,,,,,TestWords/NO_WA_BAY.wav,,60fdffba8b4ce4607c9db7b5,2021-07-31_20h51.49.437,Agingstudy,2020.2.10,MacIntel,60,,,,,B,,,,,,,,,,,,,,,2,1,1.0581,0,86,86,86,1,2,NEW,NEW,,,,,,,,
,,,,,,,,,,,,,,,,TestWords/KAI_LAY_TA.wav,,60fdffba8b4ce4607c9db7b5,2021-07-31_20h51.49.437,Agingstudy,2020.2.10,MacIntel,60,,,,,B,,,,,,,,,,,,,,,1,1,0.5575,0,87,87,87,1,1,OLD,OLD,,,,,,,,
,,,,,,,,,,,,,,,,TestWords/GA_MU_ZI.wav,,60fdffba8b4ce4607c9db7b5,2021-07-31_20h51.49.437,Agingstudy,2020.2.10,MacIntel,60,,,,,B,,,,,,,,,,,,,,,1,1,0.3686,0,88,88,88,1,1,OLD,OLD,,,,,,,,
,,,,,,,,,,,,,,,,TestWords/DAI_RU_CHI.wav,,60fdffba8b4ce4607c9db7b5,2021-07-31_20h51.49.437,Agingstudy,2020.2.10,MacIntel,60,,,,,B,,,,,,,,,,,,,,,1,1,0.3361,0,89,89,89,1,1,OLD,OLD,,,,,,,,
,,,,,,,,,,,,,,,,TestWords/LA_ZAY_CHAI.wav,,60fdffba8b4ce4607c9db7b5,2021-07-31_20h51.49.437,Agingstudy,2020.2.10,MacIntel,60,,,,,B,,,,,,,,,,,,,,,2,1,0.8077,0,90,90,90,1,2,NEW,NEW,,,,,,,,
,,,,,,,,,,,,,,,,TestWords/BA_LI_KAY.wav,,60fdffba8b4ce4607c9db7b5,2021-07-31_20h51.49.437,Agingstudy,2020.2.10,MacIntel,60,,,,,B,,,,,,,,,,,,,,,2,1,1.322,0,91,91,91,1,2,NEW,SIMILAR,,,,,,,,
,,,,,,,,,,,,,,,,TestWords/PAI_LU_WA.wav,,60fdffba8b4ce4607c9db7b5,2021-07-31_20h51.49.437,Agingstudy,2020.2.10,MacIntel,60,,,,,B,,,,,,,,,,,,,,,2,1,0.9237,0,92,92,92,1,2,NEW,NEW,,,,,,,,
,,,,,,,,,,,,,,,,TestWords/KO_SU_FAI.wav,,60fdffba8b4ce4607c9db7b5,2021-07-31_20h51.49.437,Agingstudy,2020.2.10,MacIntel,60,,,,,B,,,,,,,,,,,,,,,1,1,2.7286,0,93,93,93,1,1,OLD,OLD,,,,,,,,
,,,,,,,,,,,,,,,,TestWords/KAI_LAY_TA.wav,,60fdffba8b4ce4607c9db7b5,2021-07-31_20h51.49.437,Agingstudy,2020.2.10,MacIntel,60,,,,,B,,,,,,,,,,,,,,,1,1,0.506,0,94,94,94,1,1,OLD,OLD,,,,,,,,
,,,,,,,,,,,,,,,,TestWords/VAI_HO_LA.wav,,60fdffba8b4ce4607c9db7b5,2021-07-31_20h51.49.437,Agingstudy,2020.2.10,MacIntel,60,,,,,B,,,,,,,,,,,,,,,2,1,0.3747,0,95,95,95,1,2,NEW,NEW,,,,,,,,
,,,,,,,,,,,,,,,,TestWords/GA_MU_ZI.wav,,60fdffba8b4ce4607c9db7b5,2021-07-31_20h51.49.437,Agingstudy,2020.2.10,MacIntel,60,,,,,B,,,,,,,,,,,,,,,1,1,0.3741,0,96,96,96,1,1,OLD,OLD,,,,,,,,
,,,,,,,,,,,,,,,,TestWords/LI_KAY_BA.wav,,60fdffba8b4ce4607c9db7b5,2021-07-31_20h51.49.437,Agingstudy,2020.2.10,MacIntel,60,,,,,B,,,,,,,,,,,,,,,1,0,2.9737,0,97,97,97,1,2,NEW,SIMILAR,,,,,,,,
,,,,,,,,,,,,,,,,TestWords/KAI_LAY_TA.wav,,60fdffba8b4ce4607c9db7b5,2021-07-31_20h51.49.437,Agingstudy,2020.2.10,MacIntel,60,,,,,B,,,,,,,,,,,,,,,1,1,0.3079,0,98,98,98,1,1,OLD,OLD,,,,,,,,
,,,,,,,,,,,,,,,,TestWords/SI_VAI_CHU.wav,,60fdffba8b4ce4607c9db7b5,2021-07-31_20h51.49.437,Agingstudy,2020.2.10,MacIntel,60,,,,,B,,,,,,,,,,,,,,,2,1,0.7361,0,99,99,99,1,2,NEW,NEW,,,,,,,,
,,,,,,,,,,,,,,,,,,60fdffba8b4ce4607c9db7b5,2021-07-31_20h51.49.437,Agingstudy,2020.2.10,MacIntel,60,,,,,,,,,,,,,,,,,,,,,,,,,,,,,,,0,0,0,0,1,,,
,,,,,,,,,,,,,,,,,,60fdffba8b4ce4607c9db7b5,2021-07-31_20h51.49.437,Agingstudy,2020.2.10,MacIntel,60,,,,,,,,,,,,,,,,,,,,,,,,,,,,,,,,,,,,return,15.6823,
