Welcome0Continue.keys,Welcome0Continue.rt,SoundCheckBegin.keys,SoundCheckBegin.rt,SoundCheckEndKey.keys,SoundCheckEndKey.rt,HeadphoneContinueKey.keys,HeadphoneContinueKey.rt,CheckResp.keys,CheckResp.corr,CheckResp.rt,HeadphoneLoop.thisRepN,HeadphoneLoop.thisTrialN,HeadphoneLoop.thisN,HeadphoneLoop.thisIndex,HeadphoneLoop.ran,File,Correct,participant,date,expName,psychopyVersion,OS,frameRate,ContinueKey8.keys,ContinueKey8.rt,MSTWelcomeContKey.keys,MSTWelcomeContKey.rt,Condition,MSTTrainIntroKey.keys,MSTTrainIntroKey.rt,MSTTrainKeys.keys,MSTTrainKeys.corr,MSTTrainKeys.rt,MSTTrainLoop.thisRepN,MSTTrainLoop.thisTrialN,MSTTrainLoop.thisN,MSTTrainLoop.thisIndex,MSTTrainLoop.ran,SoundFile,Type,MSTTestBeginKey.keys,MSTTestBeginKey.rt,MST_resp.keys,MST_resp.corr,MST_resp.rt,MSTPlayLoop.thisRepN,MSTPlayLoop.thisTrialN,MSTPlayLoop.thisN,MSTPlayLoop.thisIndex,MSTPlayLoop.ran,WordCorrect,Correct_type,WordType,MSTLoop.thisRepN,MSTLoop.thisTrialN,MSTLoop.thisN,MSTLoop.thisIndex,MSTLoop.ran,EndAllKey.keys,EndAllKey.rt,FeedbackResp.text
space,6.0802,space,4.1508,space,4.6548,space,14.3147,2,1,2.6139,0,0,0,2,1,Headphone/t2_1.wav,2,60fd3d9e7434801d922cd2e0,2021-10-31_19h03.24.525,Agingstudy,2020.2.10,Win32,60,,,,,,,,,,,,,,,,,,,,,,,,,,,,,,,,,,,,,,
,,,,,,,,3,1,0.9038,0,1,1,4,1,Headphone/t3_1.wav,3,60fd3d9e7434801d922cd2e0,2021-10-31_19h03.24.525,Agingstudy,2020.2.10,Win32,60,,,,,,,,,,,,,,,,,,,,,,,,,,,,,,,,,,,,,,
,,,,,,,,1,1,0.6187,0,2,2,0,1,Headphone/t1_1.wav,1,60fd3d9e7434801d922cd2e0,2021-10-31_19h03.24.525,Agingstudy,2020.2.10,Win32,60,,,,,,,,,,,,,,,,,,,,,,,,,,,,,,,,,,,,,,
,,,,,,,,3,1,0.6398,0,3,3,5,1,Headphone/t3_2.wav,3,60fd3d9e7434801d922cd2e0,2021-10-31_19h03.24.525,Agingstudy,2020.2.10,Win32,60,,,,,,,,,,,,,,,,,,,,,,,,,,,,,,,,,,,,,,
,,,,,,,,1,1,0.5388,0,4,4,1,1,Headphone/t1_2.wav,1,60fd3d9e7434801d922cd2e0,2021-10-31_19h03.24.525,Agingstudy,2020.2.10,Win32,60,,,,,,,,,,,,,,,,,,,,,,,,,,,,,,,,,,,,,,
,,,,,,,,2,1,0.413,0,5,5,3,1,Headphone/t2_2.wav,2,60fd3d9e7434801d922cd2e0,2021-10-31_19h03.24.525,Agingstudy,2020.2.10,Win32,60,,,,,,,,,,,,,,,,,,,,,,,,,,,,,,,,,,,,,,
,,,,,,,,,,,,,,,,,2,60fd3d9e7434801d922cd2e0,2021-10-31_19h03.24.525,Agingstudy,2020.2.10,Win32,60,space,18.2032,space,9.4729,1,space,5.7375,1,0,2.6116,0,0,0,0,1,Training/FO_YI_LAY.wav,NEW,,,,,,,,,,,,,,,,,,,,,
,,,,,,,,,,,,,,,,,1,60fd3d9e7434801d922cd2e0,2021-10-31_19h03.24.525,Agingstudy,2020.2.10,Win32,60,,,,,,,,1,1,4.9585,0,1,1,1,1,Training/FO_YI_LAY.wav,OLD,,,,,,,,,,,,,,,,,,,,,
,,,,,,,,,,,,,,,,,2,60fd3d9e7434801d922cd2e0,2021-10-31_19h03.24.525,Agingstudy,2020.2.10,Win32,60,,,,,,,,2,1,1.4395,0,2,2,2,1,Training/YO_BU_JAY.wav,NEW,,,,,,,,,,,,,,,,,,,,,
,,,,,,,,,,,,,,,,,2,60fd3d9e7434801d922cd2e0,2021-10-31_19h03.24.525,Agingstudy,2020.2.10,Win32,60,,,,,,,,2,1,1.5549,0,3,3,3,1,Training/JAY_YO_BU.wav,SIMILAR,,,,,,,,,,,,,,,,,,,,,
,,,,,,,,,,,,,,,,,1,60fd3d9e7434801d922cd2e0,2021-10-31_19h03.24.525,Agingstudy,2020.2.10,Win32,60,,,,,,,,1,1,1.0104,0,4,4,4,1,Training/FO_YI_LAY.wav,OLD,,,,,,,,,,,,,,,,,,,,,
,,,,,,,,,,,,,,,,TestWords/SI_VAI_CHU.wav,,60fd3d9e7434801d922cd2e0,2021-10-31_19h03.24.525,Agingstudy,2020.2.10,Win32,60,,,,,F,,,,,,,,,,,,,space,5.5777,2,1,1.4793,0,0,0,0,1,2,NEW,NEW,,,,,,,,
,,,,,,,,,,,,,,,,TestWords/HO_NAY_VA.wav,,60fd3d9e7434801d922cd2e0,2021-10-31_19h03.24.525,Agingstudy,2020.2.10,Win32,60,,,,,F,,,,,,,,,,,,,,,2,1,0.9588,0,1,1,1,1,2,NEW,NEW,,,,,,,,
,,,,,,,,,,,,,,,,TestWords/KAI_LAY_TA.wav,,60fd3d9e7434801d922cd2e0,2021-10-31_19h03.24.525,Agingstudy,2020.2.10,Win32,60,,,,,F,,,,,,,,,,,,,,,2,1,0.9672,0,2,2,2,1,2,NEW,NEW,,,,,,,,
,,,,,,,,,,,,,,,,TestWords/PAI_LU_WA.wav,,60fd3d9e7434801d922cd2e0,2021-10-31_19h03.24.525,Agingstudy,2020.2.10,Win32,60,,,,,F,,,,,,,,,,,,,,,2,1,0.661,0,3,3,3,1,2,NEW,NEW,,,,,,,,
,,,,,,,,,,,,,,,,TestWords/WAI_VU_NA.wav,,60fd3d9e7434801d922cd2e0,2021-10-31_19h03.24.525,Agingstudy,2020.2.10,Win32,60,,,,,F,,,,,,,,,,,,,,,2,1,0.7435,0,4,4,4,1,2,NEW,NEW,,,,,,,,
,,,,,,,,,,,,,,,,TestWords/VAI_HO_LA.wav,,60fd3d9e7434801d922cd2e0,2021-10-31_19h03.24.525,Agingstudy,2020.2.10,Win32,60,,,,,F,,,,,,,,,,,,,,,2,1,1.4745,0,5,5,5,1,2,NEW,NEW,,,,,,,,
,,,,,,,,,,,,,,,,TestWords/GU_CHAI_PI.wav,,60fd3d9e7434801d922cd2e0,2021-10-31_19h03.24.525,Agingstudy,2020.2.10,Win32,60,,,,,F,,,,,,,,,,,,,,,2,1,1.0517,0,6,6,6,1,2,NEW,NEW,,,,,,,,
,,,,,,,,,,,,,,,,TestWords/KO_SU_FAI.wav,,60fd3d9e7434801d922cd2e0,2021-10-31_19h03.24.525,Agingstudy,2020.2.10,Win32,60,,,,,F,,,,,,,,,,,,,,,2,1,1.7629,0,7,7,7,1,2,NEW,NEW,,,,,,,,
,,,,,,,,,,,,,,,,TestWords/KAI_LAY_TA.wav,,60fd3d9e7434801d922cd2e0,2021-10-31_19h03.24.525,Agingstudy,2020.2.10,Win32,60,,,,,F,,,,,,,,,,,,,,,1,1,2.4168,0,8,8,8,1,1,OLD,OLD,,,,,,,,
,,,,,,,,,,,,,,,,TestWords/BA_KAY_LI.wav,,60fd3d9e7434801d922cd2e0,2021-10-31_19h03.24.525,Agingstudy,2020.2.10,Win32,60,,,,,F,,,,,,,,,,,,,,,2,1,1.2459,0,9,9,9,1,2,NEW,NEW,,,,,,,,
,,,,,,,,,,,,,,,,TestWords/DAI_RU_CHI.wav,,60fd3d9e7434801d922cd2e0,2021-10-31_19h03.24.525,Agingstudy,2020.2.10,Win32,60,,,,,F,,,,,,,,,,,,,,,2,1,0.6278,0,10,10,10,1,2,NEW,NEW,,,,,,,,
,,,,,,,,,,,,,,,,TestWords/WAI_NA_VU.wav,,60fd3d9e7434801d922cd2e0,2021-10-31_19h03.24.525,Agingstudy,2020.2.10,Win32,60,,,,,F,,,,,,,,,,,,,,,2,1,0.6964,0,11,11,11,1,2,NEW,SIMILAR,,,,,,,,
,,,,,,,,,,,,,,,,TestWords/DA_CHU_VAI.wav,,60fd3d9e7434801d922cd2e0,2021-10-31_19h03.24.525,Agingstudy,2020.2.10,Win32,60,,,,,F,,,,,,,,,,,,,,,1,0,1.2757,0,12,12,12,1,2,NEW,NEW,,,,,,,,
,,,,,,,,,,,,,,,,TestWords/KAI_LAY_TA.wav,,60fd3d9e7434801d922cd2e0,2021-10-31_19h03.24.525,Agingstudy,2020.2.10,Win32,60,,,,,F,,,,,,,,,,,,,,,1,1,2.6754,0,13,13,13,1,1,OLD,OLD,,,,,,,,
,,,,,,,,,,,,,,,,TestWords/KO_SU_FAI.wav,,60fd3d9e7434801d922cd2e0,2021-10-31_19h03.24.525,Agingstudy,2020.2.10,Win32,60,,,,,F,,,,,,,,,,,,,,,2,0,1.9541,0,14,14,14,1,1,OLD,OLD,,,,,,,,
,,,,,,,,,,,,,,,,TestWords/VU_NA_WAI.wav,,60fd3d9e7434801d922cd2e0,2021-10-31_19h03.24.525,Agingstudy,2020.2.10,Win32,60,,,,,F,,,,,,,,,,,,,,,2,1,1.9453,0,15,15,15,1,2,NEW,SIMILAR,,,,,,,,
,,,,,,,,,,,,,,,,TestWords/DAI_RU_CHI.wav,,60fd3d9e7434801d922cd2e0,2021-10-31_19h03.24.525,Agingstudy,2020.2.10,Win32,60,,,,,F,,,,,,,,,,,,,,,2,0,1.4422,0,16,16,16,1,1,OLD,OLD,,,,,,,,
,,,,,,,,,,,,,,,,TestWords/KAY_LI_BA.wav,,60fd3d9e7434801d922cd2e0,2021-10-31_19h03.24.525,Agingstudy,2020.2.10,Win32,60,,,,,F,,,,,,,,,,,,,,,1,0,0.8551,0,17,17,17,1,2,NEW,SIMILAR,,,,,,,,
,,,,,,,,,,,,,,,,TestWords/RAY_PA_TI.wav,,60fd3d9e7434801d922cd2e0,2021-10-31_19h03.24.525,Agingstudy,2020.2.10,Win32,60,,,,,F,,,,,,,,,,,,,,,2,1,0.7121,0,18,18,18,1,2,NEW,NEW,,,,,,,,
,,,,,,,,,,,,,,,,TestWords/KAI_LAY_TA.wav,,60fd3d9e7434801d922cd2e0,2021-10-31_19h03.24.525,Agingstudy,2020.2.10,Win32,60,,,,,F,,,,,,,,,,,,,,,2,0,1.4539,0,19,19,19,1,1,OLD,OLD,,,,,,,,
,,,,,,,,,,,,,,,,TestWords/VU_WAI_NA.wav,,60fd3d9e7434801d922cd2e0,2021-10-31_19h03.24.525,Agingstudy,2020.2.10,Win32,60,,,,,F,,,,,,,,,,,,,,,1,0,1.466,0,20,20,20,1,2,NEW,SIMILAR,,,,,,,,
,,,,,,,,,,,,,,,,TestWords/KO_SU_FAI.wav,,60fd3d9e7434801d922cd2e0,2021-10-31_19h03.24.525,Agingstudy,2020.2.10,Win32,60,,,,,F,,,,,,,,,,,,,,,2,0,1.2499,0,21,21,21,1,1,OLD,OLD,,,,,,,,
,,,,,,,,,,,,,,,,TestWords/HI_NAY_VA.wav,,60fd3d9e7434801d922cd2e0,2021-10-31_19h03.24.525,Agingstudy,2020.2.10,Win32,60,,,,,F,,,,,,,,,,,,,,,1,0,1.5239,0,22,22,22,1,2,NEW,NEW,,,,,,,,
,,,,,,,,,,,,,,,,TestWords/KAI_LAY_TA.wav,,60fd3d9e7434801d922cd2e0,2021-10-31_19h03.24.525,Agingstudy,2020.2.10,Win32,60,,,,,F,,,,,,,,,,,,,,,1,1,1.0716,0,23,23,23,1,1,OLD,OLD,,,,,,,,
,,,,,,,,,,,,,,,,TestWords/RAY_PA_TI.wav,,60fd3d9e7434801d922cd2e0,2021-10-31_19h03.24.525,Agingstudy,2020.2.10,Win32,60,,,,,F,,,,,,,,,,,,,,,1,1,0.6196,0,24,24,24,1,1,OLD,OLD,,,,,,,,
,,,,,,,,,,,,,,,,TestWords/DAI_RU_CHI.wav,,60fd3d9e7434801d922cd2e0,2021-10-31_19h03.24.525,Agingstudy,2020.2.10,Win32,60,,,,,F,,,,,,,,,,,,,,,1,1,2.0351,0,25,25,25,1,1,OLD,OLD,,,,,,,,
,,,,,,,,,,,,,,,,TestWords/NA_VU_WAI.wav,,60fd3d9e7434801d922cd2e0,2021-10-31_19h03.24.525,Agingstudy,2020.2.10,Win32,60,,,,,F,,,,,,,,,,,,,,,2,1,0.8215,0,26,26,26,1,2,NEW,SIMILAR,,,,,,,,
,,,,,,,,,,,,,,,,TestWords/KAY_BA_LI.wav,,60fd3d9e7434801d922cd2e0,2021-10-31_19h03.24.525,Agingstudy,2020.2.10,Win32,60,,,,,F,,,,,,,,,,,,,,,1,0,0.4008,0,27,27,27,1,2,NEW,SIMILAR,,,,,,,,
,,,,,,,,,,,,,,,,TestWords/KO_SU_FAI.wav,,60fd3d9e7434801d922cd2e0,2021-10-31_19h03.24.525,Agingstudy,2020.2.10,Win32,60,,,,,F,,,,,,,,,,,,,,,1,1,2.042,0,28,28,28,1,1,OLD,OLD,,,,,,,,
,,,,,,,,,,,,,,,,TestWords/KAI_LAY_TA.wav,,60fd3d9e7434801d922cd2e0,2021-10-31_19h03.24.525,Agingstudy,2020.2.10,Win32,60,,,,,F,,,,,,,,,,,,,,,1,1,2.7318,0,29,29,29,1,1,OLD,OLD,,,,,,,,
,,,,,,,,,,,,,,,,TestWords/RAY_PA_TI.wav,,60fd3d9e7434801d922cd2e0,2021-10-31_19h03.24.525,Agingstudy,2020.2.10,Win32,60,,,,,F,,,,,,,,,,,,,,,1,1,0.6463,0,30,30,30,1,1,OLD,OLD,,,,,,,,
,,,,,,,,,,,,,,,,TestWords/NU_CHAY_SO.wav,,60fd3d9e7434801d922cd2e0,2021-10-31_19h03.24.525,Agingstudy,2020.2.10,Win32,60,,,,,F,,,,,,,,,,,,,,,2,1,0.3662,0,31,31,31,1,2,NEW,NEW,,,,,,,,
,,,,,,,,,,,,,,,,TestWords/DAI_RU_CHI.wav,,60fd3d9e7434801d922cd2e0,2021-10-31_19h03.24.525,Agingstudy,2020.2.10,Win32,60,,,,,F,,,,,,,,,,,,,,,1,1,1.1215,0,32,32,32,1,1,OLD,OLD,,,,,,,,
,,,,,,,,,,,,,,,,TestWords/NA_WAI_VU.wav,,60fd3d9e7434801d922cd2e0,2021-10-31_19h03.24.525,Agingstudy,2020.2.10,Win32,60,,,,,F,,,,,,,,,,,,,,,2,1,0.4939,0,33,33,33,1,2,NEW,SIMILAR,,,,,,,,
,,,,,,,,,,,,,,,,TestWords/GA_MU_ZI.wav,,60fd3d9e7434801d922cd2e0,2021-10-31_19h03.24.525,Agingstudy,2020.2.10,Win32,60,,,,,F,,,,,,,,,,,,,,,2,1,0.3338,0,34,34,34,1,2,NEW,NEW,,,,,,,,
,,,,,,,,,,,,,,,,TestWords/KAI_LAY_TA.wav,,60fd3d9e7434801d922cd2e0,2021-10-31_19h03.24.525,Agingstudy,2020.2.10,Win32,60,,,,,F,,,,,,,,,,,,,,,1,1,0.3908,0,35,35,35,1,1,OLD,OLD,,,,,,,,
,,,,,,,,,,,,,,,,TestWords/LI_BA_KAY.wav,,60fd3d9e7434801d922cd2e0,2021-10-31_19h03.24.525,Agingstudy,2020.2.10,Win32,60,,,,,F,,,,,,,,,,,,,,,2,1,0.3104,0,36,36,36,1,2,NEW,SIMILAR,,,,,,,,
,,,,,,,,,,,,,,,,TestWords/KO_SU_FAI.wav,,60fd3d9e7434801d922cd2e0,2021-10-31_19h03.24.525,Agingstudy,2020.2.10,Win32,60,,,,,F,,,,,,,,,,,,,,,2,0,0.3754,0,37,37,37,1,1,OLD,OLD,,,,,,,,
,,,,,,,,,,,,,,,,TestWords/RAY_PA_TI.wav,,60fd3d9e7434801d922cd2e0,2021-10-31_19h03.24.525,Agingstudy,2020.2.10,Win32,60,,,,,F,,,,,,,,,,,,,,,1,1,0.2459,0,38,38,38,1,1,OLD,OLD,,,,,,,,
,,,,,,,,,,,,,,,,TestWords/TAI_SA_GI.wav,,60fd3d9e7434801d922cd2e0,2021-10-31_19h03.24.525,Agingstudy,2020.2.10,Win32,60,,,,,F,,,,,,,,,,,,,,,2,1,0.7124,0,39,39,39,1,2,NEW,NEW,,,,,,,,
,,,,,,,,,,,,,,,,TestWords/DAI_RU_CHI.wav,,60fd3d9e7434801d922cd2e0,2021-10-31_19h03.24.525,Agingstudy,2020.2.10,Win32,60,,,,,F,,,,,,,,,,,,,,,1,1,0.5571,0,40,40,40,1,1,OLD,OLD,,,,,,,,
,,,,,,,,,,,,,,,,TestWords/GA_MU_ZI.wav,,60fd3d9e7434801d922cd2e0,2021-10-31_19h03.24.525,Agingstudy,2020.2.10,Win32,60,,,,,F,,,,,,,,,,,,,,,2,0,0.5373,0,41,41,41,1,1,OLD,OLD,,,,,,,,
,,,,,,,,,,,,,,,,TestWords/KAI_LAY_TA.wav,,60fd3d9e7434801d922cd2e0,2021-10-31_19h03.24.525,Agingstudy,2020.2.10,Win32,60,,,,,F,,,,,,,,,,,,,,,1,1,1.0693,0,42,42,42,1,1,OLD,OLD,,,,,,,,
,,,,,,,,,,,,,,,,TestWords/GI_SA_TAI.wav,,60fd3d9e7434801d922cd2e0,2021-10-31_19h03.24.525,Agingstudy,2020.2.10,Win32,60,,,,,F,,,,,,,,,,,,,,,2,1,0.3606,0,43,43,43,1,2,NEW,SIMILAR,,,,,,,,
,,,,,,,,,,,,,,,,TestWords/BA_LI_KAY.wav,,60fd3d9e7434801d922cd2e0,2021-10-31_19h03.24.525,Agingstudy,2020.2.10,Win32,60,,,,,F,,,,,,,,,,,,,,,2,1,0.4267,0,44,44,44,1,2,NEW,SIMILAR,,,,,,,,
,,,,,,,,,,,,,,,,TestWords/KO_SU_FAI.wav,,60fd3d9e7434801d922cd2e0,2021-10-31_19h03.24.525,Agingstudy,2020.2.10,Win32,60,,,,,F,,,,,,,,,,,,,,,1,1,0.6609,0,45,45,45,1,1,OLD,OLD,,,,,,,,
,,,,,,,,,,,,,,,,TestWords/RAY_PA_TI.wav,,60fd3d9e7434801d922cd2e0,2021-10-31_19h03.24.525,Agingstudy,2020.2.10,Win32,60,,,,,F,,,,,,,,,,,,,,,1,1,0.386,0,46,46,46,1,1,OLD,OLD,,,,,,,,
,,,,,,,,,,,,,,,,TestWords/GA_MU_ZI.wav,,60fd3d9e7434801d922cd2e0,2021-10-31_19h03.24.525,Agingstudy,2020.2.10,Win32,60,,,,,F,,,,,,,,,,,,,,,1,1,0.9129,0,47,47,47,1,1,OLD,OLD,,,,,,,,
,,,,,,,,,,,,,,,,TestWords/LU_HAI_BO.wav,,60fd3d9e7434801d922cd2e0,2021-10-31_19h03.24.525,Agingstudy,2020.2.10,Win32,60,,,,,F,,,,,,,,,,,,,,,2,1,0.2615,0,48,48,48,1,2,NEW,NEW,,,,,,,,
,,,,,,,,,,,,,,,,TestWords/KAI_LAY_TA.wav,,60fd3d9e7434801d922cd2e0,2021-10-31_19h03.24.525,Agingstudy,2020.2.10,Win32,60,,,,,F,,,,,,,,,,,,,,,1,1,0.654,0,49,49,49,1,1,OLD,OLD,,,,,,,,
,,,,,,,,,,,,,,,,TestWords/DAI_RU_CHI.wav,,60fd3d9e7434801d922cd2e0,2021-10-31_19h03.24.525,Agingstudy,2020.2.10,Win32,60,,,,,F,,,,,,,,,,,,,,,1,1,3.1635,0,50,50,50,1,1,OLD,OLD,,,,,,,,
,,,,,,,,,,,,,,,,TestWords/GI_TAI_SA.wav,,60fd3d9e7434801d922cd2e0,2021-10-31_19h03.24.525,Agingstudy,2020.2.10,Win32,60,,,,,F,,,,,,,,,,,,,,,2,1,0.6877,0,51,51,51,1,2,NEW,SIMILAR,,,,,,,,
,,,,,,,,,,,,,,,,TestWords/LI_KAY_BA.wav,,60fd3d9e7434801d922cd2e0,2021-10-31_19h03.24.525,Agingstudy,2020.2.10,Win32,60,,,,,F,,,,,,,,,,,,,,,2,1,0.5492,0,52,52,52,1,2,NEW,SIMILAR,,,,,,,,
,,,,,,,,,,,,,,,,TestWords/RAY_PA_TI.wav,,60fd3d9e7434801d922cd2e0,2021-10-31_19h03.24.525,Agingstudy,2020.2.10,Win32,60,,,,,F,,,,,,,,,,,,,,,1,1,0.2915,0,53,53,53,1,1,OLD,OLD,,,,,,,,
,,,,,,,,,,,,,,,,TestWords/KO_SU_FAI.wav,,60fd3d9e7434801d922cd2e0,2021-10-31_19h03.24.525,Agingstudy,2020.2.10,Win32,60,,,,,F,,,,,,,,,,,,,,,2,0,1.673,0,54,54,54,1,1,OLD,OLD,,,,,,,,
,,,,,,,,,,,,,,,,TestWords/DAY_PU_MO.wav,,60fd3d9e7434801d922cd2e0,2021-10-31_19h03.24.525,Agingstudy,2020.2.10,Win32,60,,,,,F,,,,,,,,,,,,,,,2,1,0.4929,0,55,55,55,1,2,NEW,NEW,,,,,,,,
,,,,,,,,,,,,,,,,TestWords/KAI_LAY_TA.wav,,60fd3d9e7434801d922cd2e0,2021-10-31_19h03.24.525,Agingstudy,2020.2.10,Win32,60,,,,,F,,,,,,,,,,,,,,,2,0,1.5307,0,56,56,56,1,1,OLD,OLD,,,,,,,,
,,,,,,,,,,,,,,,,TestWords/GA_MU_ZI.wav,,60fd3d9e7434801d922cd2e0,2021-10-31_19h03.24.525,Agingstudy,2020.2.10,Win32,60,,,,,F,,,,,,,,,,,,,,,2,0,1.4006,0,57,57,57,1,1,OLD,OLD,,,,,,,,
,,,,,,,,,,,,,,,,TestWords/CHU_LA_PAY.wav,,60fd3d9e7434801d922cd2e0,2021-10-31_19h03.24.525,Agingstudy,2020.2.10,Win32,60,,,,,F,,,,,,,,,,,,,,,2,1,3.0108,0,58,58,58,1,2,NEW,NEW,,,,,,,,
,,,,,,,,,,,,,,,,TestWords/DAI_RU_CHI.wav,,60fd3d9e7434801d922cd2e0,2021-10-31_19h03.24.525,Agingstudy,2020.2.10,Win32,60,,,,,F,,,,,,,,,,,,,,,2,0,2.9632,0,59,59,59,1,1,OLD,OLD,,,,,,,,
,,,,,,,,,,,,,,,,TestWords/SA_TAI_GI.wav,,60fd3d9e7434801d922cd2e0,2021-10-31_19h03.24.525,Agingstudy,2020.2.10,Win32,60,,,,,F,,,,,,,,,,,,,,,2,1,0.5511,0,60,60,60,1,2,NEW,SIMILAR,,,,,,,,
,,,,,,,,,,,,,,,,TestWords/RAY_PA_TI.wav,,60fd3d9e7434801d922cd2e0,2021-10-31_19h03.24.525,Agingstudy,2020.2.10,Win32,60,,,,,F,,,,,,,,,,,,,,,1,1,0.1744,0,61,61,61,1,1,OLD,OLD,,,,,,,,
,,,,,,,,,,,,,,,,TestWords/KAI_LAY_TA.wav,,60fd3d9e7434801d922cd2e0,2021-10-31_19h03.24.525,Agingstudy,2020.2.10,Win32,60,,,,,F,,,,,,,,,,,,,,,1,1,1.2205,0,62,62,62,1,1,OLD,OLD,,,,,,,,
,,,,,,,,,,,,,,,,TestWords/FU_RAI_ZO.wav,,60fd3d9e7434801d922cd2e0,2021-10-31_19h03.24.525,Agingstudy,2020.2.10,Win32,60,,,,,F,,,,,,,,,,,,,,,2,1,0.3224,0,63,63,63,1,2,NEW,NEW,,,,,,,,
,,,,,,,,,,,,,,,,TestWords/KO_SU_FAI.wav,,60fd3d9e7434801d922cd2e0,2021-10-31_19h03.24.525,Agingstudy,2020.2.10,Win32,60,,,,,F,,,,,,,,,,,,,,,2,0,1.2728,0,64,64,64,1,1,OLD,OLD,,,,,,,,
,,,,,,,,,,,,,,,,TestWords/GA_MU_ZI.wav,,60fd3d9e7434801d922cd2e0,2021-10-31_19h03.24.525,Agingstudy,2020.2.10,Win32,60,,,,,F,,,,,,,,,,,,,,,2,0,1.6183,0,65,65,65,1,1,OLD,OLD,,,,,,,,
,,,,,,,,,,,,,,,,TestWords/DAY_MO_PU.wav,,60fd3d9e7434801d922cd2e0,2021-10-31_19h03.24.525,Agingstudy,2020.2.10,Win32,60,,,,,F,,,,,,,,,,,,,,,2,1,0.4693,0,66,66,66,1,2,NEW,SIMILAR,,,,,,,,
,,,,,,,,,,,,,,,,TestWords/DAI_RU_CHI.wav,,60fd3d9e7434801d922cd2e0,2021-10-31_19h03.24.525,Agingstudy,2020.2.10,Win32,60,,,,,F,,,,,,,,,,,,,,,1,1,0.5008,0,67,67,67,1,1,OLD,OLD,,,,,,,,
,,,,,,,,,,,,,,,,TestWords/FI_GU_CHA.wav,,60fd3d9e7434801d922cd2e0,2021-10-31_19h03.24.525,Agingstudy,2020.2.10,Win32,60,,,,,F,,,,,,,,,,,,,,,2,1,0.3175,0,68,68,68,1,2,NEW,NEW,,,,,,,,
,,,,,,,,,,,,,,,,TestWords/GA_MU_ZI.wav,,60fd3d9e7434801d922cd2e0,2021-10-31_19h03.24.525,Agingstudy,2020.2.10,Win32,60,,,,,F,,,,,,,,,,,,,,,1,1,0.2498,0,69,69,69,1,1,OLD,OLD,,,,,,,,
,,,,,,,,,,,,,,,,TestWords/RAY_PA_TI.wav,,60fd3d9e7434801d922cd2e0,2021-10-31_19h03.24.525,Agingstudy,2020.2.10,Win32,60,,,,,F,,,,,,,,,,,,,,,1,1,0.2949,0,70,70,70,1,1,OLD,OLD,,,,,,,,
,,,,,,,,,,,,,,,,TestWords/SA_GI_TAI.wav,,60fd3d9e7434801d922cd2e0,2021-10-31_19h03.24.525,Agingstudy,2020.2.10,Win32,60,,,,,F,,,,,,,,,,,,,,,2,1,0.4562,0,71,71,71,1,2,NEW,SIMILAR,,,,,,,,
,,,,,,,,,,,,,,,,TestWords/MO_DAY_PU.wav,,60fd3d9e7434801d922cd2e0,2021-10-31_19h03.24.525,Agingstudy,2020.2.10,Win32,60,,,,,F,,,,,,,,,,,,,,,2,1,0.7053,0,72,72,72,1,2,NEW,SIMILAR,,,,,,,,
,,,,,,,,,,,,,,,,TestWords/KO_SU_FAI.wav,,60fd3d9e7434801d922cd2e0,2021-10-31_19h03.24.525,Agingstudy,2020.2.10,Win32,60,,,,,F,,,,,,,,,,,,,,,1,1,0.7199,0,73,73,73,1,1,OLD,OLD,,,,,,,,
,,,,,,,,,,,,,,,,TestWords/RAI_ZO_FU.wav,,60fd3d9e7434801d922cd2e0,2021-10-31_19h03.24.525,Agingstudy,2020.2.10,Win32,60,,,,,F,,,,,,,,,,,,,,,2,1,0.5571,0,74,74,74,1,2,NEW,SIMILAR,,,,,,,,
,,,,,,,,,,,,,,,,TestWords/GA_MU_ZI.wav,,60fd3d9e7434801d922cd2e0,2021-10-31_19h03.24.525,Agingstudy,2020.2.10,Win32,60,,,,,F,,,,,,,,,,,,,,,1,1,1.1331,0,75,75,75,1,1,OLD,OLD,,,,,,,,
,,,,,,,,,,,,,,,,TestWords/DAI_RU_CHI.wav,,60fd3d9e7434801d922cd2e0,2021-10-31_19h03.24.525,Agingstudy,2020.2.10,Win32,60,,,,,F,,,,,,,,,,,,,,,1,1,1.0706,0,76,76,76,1,1,OLD,OLD,,,,,,,,
,,,,,,,,,,,,,,,,TestWords/TAI_GI_SA.wav,,60fd3d9e7434801d922cd2e0,2021-10-31_19h03.24.525,Agingstudy,2020.2.10,Win32,60,,,,,F,,,,,,,,,,,,,,,2,1,1.3538,0,77,77,77,1,2,NEW,SIMILAR,,,,,,,,
,,,,,,,,,,,,,,,,TestWords/RAY_PA_TI.wav,,60fd3d9e7434801d922cd2e0,2021-10-31_19h03.24.525,Agingstudy,2020.2.10,Win32,60,,,,,F,,,,,,,,,,,,,,,1,1,0.1649,0,78,78,78,1,1,OLD,OLD,,,,,,,,
,,,,,,,,,,,,,,,,TestWords/PU_DAY_MO.wav,,60fd3d9e7434801d922cd2e0,2021-10-31_19h03.24.525,Agingstudy,2020.2.10,Win32,60,,,,,F,,,,,,,,,,,,,,,2,1,0.3004,0,79,79,79,1,2,NEW,SIMILAR,,,,,,,,
,,,,,,,,,,,,,,,,TestWords/KO_SU_FAI.wav,,60fd3d9e7434801d922cd2e0,2021-10-31_19h03.24.525,Agingstudy,2020.2.10,Win32,60,,,,,F,,,,,,,,,,,,,,,2,0,1.1286,0,80,80,80,1,1,OLD,OLD,,,,,,,,
,,,,,,,,,,,,,,,,TestWords/ZO_RAI_FU.wav,,60fd3d9e7434801d922cd2e0,2021-10-31_19h03.24.525,Agingstudy,2020.2.10,Win32,60,,,,,F,,,,,,,,,,,,,,,2,1,0.6669,0,81,81,81,1,2,NEW,SIMILAR,,,,,,,,
,,,,,,,,,,,,,,,,TestWords/GA_MU_ZI.wav,,60fd3d9e7434801d922cd2e0,2021-10-31_19h03.24.525,Agingstudy,2020.2.10,Win32,60,,,,,F,,,,,,,,,,,,,,,1,1,0.1923,0,82,82,82,1,1,OLD,OLD,,,,,,,,
,,,,,,,,,,,,,,,,TestWords/RAY_PA_TI.wav,,60fd3d9e7434801d922cd2e0,2021-10-31_19h03.24.525,Agingstudy,2020.2.10,Win32,60,,,,,F,,,,,,,,,,,,,,,1,1,0.2499,0,83,83,83,1,1,OLD,OLD,,,,,,,,
,,,,,,,,,,,,,,,,TestWords/DAI_RU_CHI.wav,,60fd3d9e7434801d922cd2e0,2021-10-31_19h03.24.525,Agingstudy,2020.2.10,Win32,60,,,,,F,,,,,,,,,,,,,,,1,1,0.4068,0,84,84,84,1,1,OLD,OLD,,,,,,,,
,,,,,,,,,,,,,,,,TestWords/GA_MU_ZI.wav,,60fd3d9e7434801d922cd2e0,2021-10-31_19h03.24.525,Agingstudy,2020.2.10,Win32,60,,,,,F,,,,,,,,,,,,,,,1,1,0.3289,0,85,85,85,1,1,OLD,OLD,,,,,,,,
,,,,,,,,,,,,,,,,TestWords/NO_WA_BAY.wav,,60fd3d9e7434801d922cd2e0,2021-10-31_19h03.24.525,Agingstudy,2020.2.10,Win32,60,,,,,F,,,,,,,,,,,,,,,2,1,0.1322,0,86,86,86,1,2,NEW,NEW,,,,,,,,
,,,,,,,,,,,,,,,,TestWords/FU_ZO_RAI.wav,,60fd3d9e7434801d922cd2e0,2021-10-31_19h03.24.525,Agingstudy,2020.2.10,Win32,60,,,,,F,,,,,,,,,,,,,,,2,1,0.3714,0,87,87,87,1,2,NEW,SIMILAR,,,,,,,,
,,,,,,,,,,,,,,,,TestWords/KO_SU_FAI.wav,,60fd3d9e7434801d922cd2e0,2021-10-31_19h03.24.525,Agingstudy,2020.2.10,Win32,60,,,,,F,,,,,,,,,,,,,,,1,1,0.5009,0,88,88,88,1,1,OLD,OLD,,,,,,,,
,,,,,,,,,,,,,,,,TestWords/PU_MO_DAY.wav,,60fd3d9e7434801d922cd2e0,2021-10-31_19h03.24.525,Agingstudy,2020.2.10,Win32,60,,,,,F,,,,,,,,,,,,,,,2,1,0.6113,0,89,89,89,1,2,NEW,SIMILAR,,,,,,,,
,,,,,,,,,,,,,,,,TestWords/RAY_PA_TI.wav,,60fd3d9e7434801d922cd2e0,2021-10-31_19h03.24.525,Agingstudy,2020.2.10,Win32,60,,,,,F,,,,,,,,,,,,,,,1,1,0.2306,0,90,90,90,1,1,OLD,OLD,,,,,,,,
,,,,,,,,,,,,,,,,TestWords/DAI_RU_CHI.wav,,60fd3d9e7434801d922cd2e0,2021-10-31_19h03.24.525,Agingstudy,2020.2.10,Win32,60,,,,,F,,,,,,,,,,,,,,,1,1,0.4567,0,91,91,91,1,1,OLD,OLD,,,,,,,,
,,,,,,,,,,,,,,,,TestWords/RAI_FU_ZO.wav,,60fd3d9e7434801d922cd2e0,2021-10-31_19h03.24.525,Agingstudy,2020.2.10,Win32,60,,,,,F,,,,,,,,,,,,,,,2,1,0.3553,0,92,92,92,1,2,NEW,SIMILAR,,,,,,,,
,,,,,,,,,,,,,,,,TestWords/GA_MU_ZI.wav,,60fd3d9e7434801d922cd2e0,2021-10-31_19h03.24.525,Agingstudy,2020.2.10,Win32,60,,,,,F,,,,,,,,,,,,,,,1,1,0.6555,0,93,93,93,1,1,OLD,OLD,,,,,,,,
,,,,,,,,,,,,,,,,TestWords/HA_SI_JAI.wav,,60fd3d9e7434801d922cd2e0,2021-10-31_19h03.24.525,Agingstudy,2020.2.10,Win32,60,,,,,F,,,,,,,,,,,,,,,2,1,0.5141,0,94,94,94,1,2,NEW,NEW,,,,,,,,
,,,,,,,,,,,,,,,,TestWords/MO_PU_DAY.wav,,60fd3d9e7434801d922cd2e0,2021-10-31_19h03.24.525,Agingstudy,2020.2.10,Win32,60,,,,,F,,,,,,,,,,,,,,,2,1,0.7458,0,95,95,95,1,2,NEW,SIMILAR,,,,,,,,
,,,,,,,,,,,,,,,,TestWords/LA_ZAY_CHAI.wav,,60fd3d9e7434801d922cd2e0,2021-10-31_19h03.24.525,Agingstudy,2020.2.10,Win32,60,,,,,F,,,,,,,,,,,,,,,2,1,0.5146,0,96,96,96,1,2,NEW,NEW,,,,,,,,
,,,,,,,,,,,,,,,,TestWords/GA_MU_ZI.wav,,60fd3d9e7434801d922cd2e0,2021-10-31_19h03.24.525,Agingstudy,2020.2.10,Win32,60,,,,,F,,,,,,,,,,,,,,,1,1,1.1122,0,97,97,97,1,1,OLD,OLD,,,,,,,,
,,,,,,,,,,,,,,,,TestWords/ZO_FU_RAI.wav,,60fd3d9e7434801d922cd2e0,2021-10-31_19h03.24.525,Agingstudy,2020.2.10,Win32,60,,,,,F,,,,,,,,,,,,,,,2,1,1.2878,0,98,98,98,1,2,NEW,SIMILAR,,,,,,,,
,,,,,,,,,,,,,,,,TestWords/WAI_RO_JU.wav,,60fd3d9e7434801d922cd2e0,2021-10-31_19h03.24.525,Agingstudy,2020.2.10,Win32,60,,,,,F,,,,,,,,,,,,,,,2,1,0.4458,0,99,99,99,1,2,NEW,NEW,,,,,,,,
,,,,,,,,,,,,,,,,,,60fd3d9e7434801d922cd2e0,2021-10-31_19h03.24.525,Agingstudy,2020.2.10,Win32,60,,,,,,,,,,,,,,,,,,,,,,,,,,,,,,,0,0,0,0,1,,,
,,,,,,,,,,,,,,,,,,60fd3d9e7434801d922cd2e0,2021-10-31_19h03.24.525,Agingstudy,2020.2.10,Win32,60,,,,,,,,,,,,,,,,,,,,,,,,,,,,,,,,,,,,return,12.9152,
