Welcome0Continue.keys,Welcome0Continue.rt,SoundCheckBegin.keys,SoundCheckBegin.rt,SoundCheckEndKey.keys,SoundCheckEndKey.rt,HeadphoneContinueKey.keys,HeadphoneContinueKey.rt,CheckResp.keys,CheckResp.corr,CheckResp.rt,HeadphoneLoop.thisRepN,HeadphoneLoop.thisTrialN,HeadphoneLoop.thisN,HeadphoneLoop.thisIndex,HeadphoneLoop.ran,File,Correct,participant,date,expName,psychopyVersion,OS,frameRate,ContinueKey8.keys,ContinueKey8.rt,MSTWelcomeContKey.keys,MSTWelcomeContKey.rt,Condition,MSTTrainIntroKey.keys,MSTTrainIntroKey.rt,MSTTrainKeys.keys,MSTTrainKeys.corr,MSTTrainKeys.rt,MSTTrainLoop.thisRepN,MSTTrainLoop.thisTrialN,MSTTrainLoop.thisN,MSTTrainLoop.thisIndex,MSTTrainLoop.ran,SoundFile,Type,MSTTestBeginKey.keys,MSTTestBeginKey.rt,MST_resp.keys,MST_resp.corr,MST_resp.rt,MSTPlayLoop.thisRepN,MSTPlayLoop.thisTrialN,MSTPlayLoop.thisN,MSTPlayLoop.thisIndex,MSTPlayLoop.ran,WordCorrect,Correct_type,WordType,MSTLoop.thisRepN,MSTLoop.thisTrialN,MSTLoop.thisN,MSTLoop.thisIndex,MSTLoop.ran,EndAllKey.keys,EndAllKey.rt,FeedbackResp.text
space,2.03,space,33.4914,space,2.1511,space,5.1461,2,0,12.3915,0,0,0,5,1,Headphone/t3_2.wav,3,60fd0ab923541ffcd2260c02,2021-07-31_22h45.39.197,Agingstudy,2020.2.10,Win32,60,,,,,,,,,,,,,,,,,,,,,,,,,,,,,,,,,,,,,,
,,,,,,,,1,1,0.7108,0,1,1,1,1,Headphone/t1_2.wav,1,60fd0ab923541ffcd2260c02,2021-07-31_22h45.39.197,Agingstudy,2020.2.10,Win32,60,,,,,,,,,,,,,,,,,,,,,,,,,,,,,,,,,,,,,,
,,,,,,,,2,1,1.1646,0,2,2,2,1,Headphone/t2_1.wav,2,60fd0ab923541ffcd2260c02,2021-07-31_22h45.39.197,Agingstudy,2020.2.10,Win32,60,,,,,,,,,,,,,,,,,,,,,,,,,,,,,,,,,,,,,,
,,,,,,,,2,1,0.7801,0,3,3,3,1,Headphone/t2_2.wav,2,60fd0ab923541ffcd2260c02,2021-07-31_22h45.39.197,Agingstudy,2020.2.10,Win32,60,,,,,,,,,,,,,,,,,,,,,,,,,,,,,,,,,,,,,,
,,,,,,,,3,1,1.0149,0,4,4,4,1,Headphone/t3_1.wav,3,60fd0ab923541ffcd2260c02,2021-07-31_22h45.39.197,Agingstudy,2020.2.10,Win32,60,,,,,,,,,,,,,,,,,,,,,,,,,,,,,,,,,,,,,,
,,,,,,,,1,1,0.7517,0,5,5,0,1,Headphone/t1_1.wav,1,60fd0ab923541ffcd2260c02,2021-07-31_22h45.39.197,Agingstudy,2020.2.10,Win32,60,,,,,,,,,,,,,,,,,,,,,,,,,,,,,,,,,,,,,,
,,,,,,,,,,,,,,,,,2,60fd0ab923541ffcd2260c02,2021-07-31_22h45.39.197,Agingstudy,2020.2.10,Win32,60,space,26.5991,space,11.0244,1,space,35.845,2,1,7.3461,0,0,0,0,1,Training/FO_YI_LAY.wav,NEW,,,,,,,,,,,,,,,,,,,,,
,,,,,,,,,,,,,,,,,1,60fd0ab923541ffcd2260c02,2021-07-31_22h45.39.197,Agingstudy,2020.2.10,Win32,60,,,,,,,,1,1,5.0211,0,1,1,1,1,Training/FO_YI_LAY.wav,OLD,,,,,,,,,,,,,,,,,,,,,
,,,,,,,,,,,,,,,,,2,60fd0ab923541ffcd2260c02,2021-07-31_22h45.39.197,Agingstudy,2020.2.10,Win32,60,,,,,,,,2,1,2.0991,0,2,2,2,1,Training/YO_BU_JAY.wav,NEW,,,,,,,,,,,,,,,,,,,,,
,,,,,,,,,,,,,,,,,2,60fd0ab923541ffcd2260c02,2021-07-31_22h45.39.197,Agingstudy,2020.2.10,Win32,60,,,,,,,,2,1,48.4831,0,3,3,3,1,Training/JAY_YO_BU.wav,SIMILAR,,,,,,,,,,,,,,,,,,,,,
,,,,,,,,,,,,,,,,,1,60fd0ab923541ffcd2260c02,2021-07-31_22h45.39.197,Agingstudy,2020.2.10,Win32,60,,,,,,,,1,1,1.7636,0,4,4,4,1,Training/FO_YI_LAY.wav,OLD,,,,,,,,,,,,,,,,,,,,,
,,,,,,,,,,,,,,,,TestWords/SI_VAI_CHU.wav,,60fd0ab923541ffcd2260c02,2021-07-31_22h45.39.197,Agingstudy,2020.2.10,Win32,60,,,,,F,,,,,,,,,,,,,space,65.1073,2,1,4.1092,0,0,0,0,1,2,NEW,NEW,,,,,,,,
,,,,,,,,,,,,,,,,TestWords/HO_NAY_VA.wav,,60fd0ab923541ffcd2260c02,2021-07-31_22h45.39.197,Agingstudy,2020.2.10,Win32,60,,,,,F,,,,,,,,,,,,,,,2,1,1.2575,0,1,1,1,1,2,NEW,NEW,,,,,,,,
,,,,,,,,,,,,,,,,TestWords/KAI_LAY_TA.wav,,60fd0ab923541ffcd2260c02,2021-07-31_22h45.39.197,Agingstudy,2020.2.10,Win32,60,,,,,F,,,,,,,,,,,,,,,2,1,3.1153,0,2,2,2,1,2,NEW,NEW,,,,,,,,
,,,,,,,,,,,,,,,,TestWords/PAI_LU_WA.wav,,60fd0ab923541ffcd2260c02,2021-07-31_22h45.39.197,Agingstudy,2020.2.10,Win32,60,,,,,F,,,,,,,,,,,,,,,2,1,0.9651,0,3,3,3,1,2,NEW,NEW,,,,,,,,
,,,,,,,,,,,,,,,,TestWords/WAI_VU_NA.wav,,60fd0ab923541ffcd2260c02,2021-07-31_22h45.39.197,Agingstudy,2020.2.10,Win32,60,,,,,F,,,,,,,,,,,,,,,2,1,3,0,4,4,4,1,2,NEW,NEW,,,,,,,,
,,,,,,,,,,,,,,,,TestWords/VAI_HO_LA.wav,,60fd0ab923541ffcd2260c02,2021-07-31_22h45.39.197,Agingstudy,2020.2.10,Win32,60,,,,,F,,,,,,,,,,,,,,,2,1,0.6789,0,5,5,5,1,2,NEW,NEW,,,,,,,,
,,,,,,,,,,,,,,,,TestWords/GU_CHAI_PI.wav,,60fd0ab923541ffcd2260c02,2021-07-31_22h45.39.197,Agingstudy,2020.2.10,Win32,60,,,,,F,,,,,,,,,,,,,,,2,1,0.6181,0,6,6,6,1,2,NEW,NEW,,,,,,,,
,,,,,,,,,,,,,,,,TestWords/KO_SU_FAI.wav,,60fd0ab923541ffcd2260c02,2021-07-31_22h45.39.197,Agingstudy,2020.2.10,Win32,60,,,,,F,,,,,,,,,,,,,,,1,0,1.0304,0,7,7,7,1,2,NEW,NEW,,,,,,,,
,,,,,,,,,,,,,,,,TestWords/KAI_LAY_TA.wav,,60fd0ab923541ffcd2260c02,2021-07-31_22h45.39.197,Agingstudy,2020.2.10,Win32,60,,,,,F,,,,,,,,,,,,,,,1,1,0.2009,0,8,8,8,1,1,OLD,OLD,,,,,,,,
,,,,,,,,,,,,,,,,TestWords/BA_KAY_LI.wav,,60fd0ab923541ffcd2260c02,2021-07-31_22h45.39.197,Agingstudy,2020.2.10,Win32,60,,,,,F,,,,,,,,,,,,,,,2,1,1.0878,0,9,9,9,1,2,NEW,NEW,,,,,,,,
,,,,,,,,,,,,,,,,TestWords/DAI_RU_CHI.wav,,60fd0ab923541ffcd2260c02,2021-07-31_22h45.39.197,Agingstudy,2020.2.10,Win32,60,,,,,F,,,,,,,,,,,,,,,2,1,2.3331,0,10,10,10,1,2,NEW,NEW,,,,,,,,
,,,,,,,,,,,,,,,,TestWords/WAI_NA_VU.wav,,60fd0ab923541ffcd2260c02,2021-07-31_22h45.39.197,Agingstudy,2020.2.10,Win32,60,,,,,F,,,,,,,,,,,,,,,1,0,2.4943,0,11,11,11,1,2,NEW,SIMILAR,,,,,,,,
,,,,,,,,,,,,,,,,TestWords/DA_CHU_VAI.wav,,60fd0ab923541ffcd2260c02,2021-07-31_22h45.39.197,Agingstudy,2020.2.10,Win32,60,,,,,F,,,,,,,,,,,,,,,1,0,0.4523,0,12,12,12,1,2,NEW,NEW,,,,,,,,
,,,,,,,,,,,,,,,,TestWords/KAI_LAY_TA.wav,,60fd0ab923541ffcd2260c02,2021-07-31_22h45.39.197,Agingstudy,2020.2.10,Win32,60,,,,,F,,,,,,,,,,,,,,,1,1,1.3949,0,13,13,13,1,1,OLD,OLD,,,,,,,,
,,,,,,,,,,,,,,,,TestWords/KO_SU_FAI.wav,,60fd0ab923541ffcd2260c02,2021-07-31_22h45.39.197,Agingstudy,2020.2.10,Win32,60,,,,,F,,,,,,,,,,,,,,,2,0,0.202,0,14,14,14,1,1,OLD,OLD,,,,,,,,
,,,,,,,,,,,,,,,,TestWords/VU_NA_WAI.wav,,60fd0ab923541ffcd2260c02,2021-07-31_22h45.39.197,Agingstudy,2020.2.10,Win32,60,,,,,F,,,,,,,,,,,,,,,2,1,0.5473,0,15,15,15,1,2,NEW,SIMILAR,,,,,,,,
,,,,,,,,,,,,,,,,TestWords/DAI_RU_CHI.wav,,60fd0ab923541ffcd2260c02,2021-07-31_22h45.39.197,Agingstudy,2020.2.10,Win32,60,,,,,F,,,,,,,,,,,,,,,1,1,0.2826,0,16,16,16,1,1,OLD,OLD,,,,,,,,
,,,,,,,,,,,,,,,,TestWords/KAY_LI_BA.wav,,60fd0ab923541ffcd2260c02,2021-07-31_22h45.39.197,Agingstudy,2020.2.10,Win32,60,,,,,F,,,,,,,,,,,,,,,1,0,3.2848,0,17,17,17,1,2,NEW,SIMILAR,,,,,,,,
,,,,,,,,,,,,,,,,TestWords/RAY_PA_TI.wav,,60fd0ab923541ffcd2260c02,2021-07-31_22h45.39.197,Agingstudy,2020.2.10,Win32,60,,,,,F,,,,,,,,,,,,,,,2,1,16.2176,0,18,18,18,1,2,NEW,NEW,,,,,,,,
,,,,,,,,,,,,,,,,TestWords/KAI_LAY_TA.wav,,60fd0ab923541ffcd2260c02,2021-07-31_22h45.39.197,Agingstudy,2020.2.10,Win32,60,,,,,F,,,,,,,,,,,,,,,1,1,0.6,0,19,19,19,1,1,OLD,OLD,,,,,,,,
,,,,,,,,,,,,,,,,TestWords/VU_WAI_NA.wav,,60fd0ab923541ffcd2260c02,2021-07-31_22h45.39.197,Agingstudy,2020.2.10,Win32,60,,,,,F,,,,,,,,,,,,,,,1,0,1.4858,0,20,20,20,1,2,NEW,SIMILAR,,,,,,,,
,,,,,,,,,,,,,,,,TestWords/KO_SU_FAI.wav,,60fd0ab923541ffcd2260c02,2021-07-31_22h45.39.197,Agingstudy,2020.2.10,Win32,60,,,,,F,,,,,,,,,,,,,,,2,0,22.0324,0,21,21,21,1,1,OLD,OLD,,,,,,,,
,,,,,,,,,,,,,,,,TestWords/HI_NAY_VA.wav,,60fd0ab923541ffcd2260c02,2021-07-31_22h45.39.197,Agingstudy,2020.2.10,Win32,60,,,,,F,,,,,,,,,,,,,,,2,1,1.3154,0,22,22,22,1,2,NEW,NEW,,,,,,,,
,,,,,,,,,,,,,,,,TestWords/KAI_LAY_TA.wav,,60fd0ab923541ffcd2260c02,2021-07-31_22h45.39.197,Agingstudy,2020.2.10,Win32,60,,,,,F,,,,,,,,,,,,,,,1,1,0.8548,0,23,23,23,1,1,OLD,OLD,,,,,,,,
,,,,,,,,,,,,,,,,TestWords/RAY_PA_TI.wav,,60fd0ab923541ffcd2260c02,2021-07-31_22h45.39.197,Agingstudy,2020.2.10,Win32,60,,,,,F,,,,,,,,,,,,,,,1,1,0.1606,0,24,24,24,1,1,OLD,OLD,,,,,,,,
,,,,,,,,,,,,,,,,TestWords/DAI_RU_CHI.wav,,60fd0ab923541ffcd2260c02,2021-07-31_22h45.39.197,Agingstudy,2020.2.10,Win32,60,,,,,F,,,,,,,,,,,,,,,1,1,0.1481,0,25,25,25,1,1,OLD,OLD,,,,,,,,
,,,,,,,,,,,,,,,,TestWords/NA_VU_WAI.wav,,60fd0ab923541ffcd2260c02,2021-07-31_22h45.39.197,Agingstudy,2020.2.10,Win32,60,,,,,F,,,,,,,,,,,,,,,1,0,0.8911,0,26,26,26,1,2,NEW,SIMILAR,,,,,,,,
,,,,,,,,,,,,,,,,TestWords/KAY_BA_LI.wav,,60fd0ab923541ffcd2260c02,2021-07-31_22h45.39.197,Agingstudy,2020.2.10,Win32,60,,,,,F,,,,,,,,,,,,,,,1,0,1.2877,0,27,27,27,1,2,NEW,SIMILAR,,,,,,,,
,,,,,,,,,,,,,,,,TestWords/KO_SU_FAI.wav,,60fd0ab923541ffcd2260c02,2021-07-31_22h45.39.197,Agingstudy,2020.2.10,Win32,60,,,,,F,,,,,,,,,,,,,,,1,1,1.4923,0,28,28,28,1,1,OLD,OLD,,,,,,,,
,,,,,,,,,,,,,,,,TestWords/KAI_LAY_TA.wav,,60fd0ab923541ffcd2260c02,2021-07-31_22h45.39.197,Agingstudy,2020.2.10,Win32,60,,,,,F,,,,,,,,,,,,,,,1,1,3.8583,0,29,29,29,1,1,OLD,OLD,,,,,,,,
,,,,,,,,,,,,,,,,TestWords/RAY_PA_TI.wav,,60fd0ab923541ffcd2260c02,2021-07-31_22h45.39.197,Agingstudy,2020.2.10,Win32,60,,,,,F,,,,,,,,,,,,,,,1,1,50.3801,0,30,30,30,1,1,OLD,OLD,,,,,,,,
,,,,,,,,,,,,,,,,TestWords/NU_CHAY_SO.wav,,60fd0ab923541ffcd2260c02,2021-07-31_22h45.39.197,Agingstudy,2020.2.10,Win32,60,,,,,F,,,,,,,,,,,,,,,2,1,52.7282,0,31,31,31,1,2,NEW,NEW,,,,,,,,
,,,,,,,,,,,,,,,,TestWords/DAI_RU_CHI.wav,,60fd0ab923541ffcd2260c02,2021-07-31_22h45.39.197,Agingstudy,2020.2.10,Win32,60,,,,,F,,,,,,,,,,,,,,,1,1,4.8496,0,32,32,32,1,1,OLD,OLD,,,,,,,,
,,,,,,,,,,,,,,,,TestWords/NA_WAI_VU.wav,,60fd0ab923541ffcd2260c02,2021-07-31_22h45.39.197,Agingstudy,2020.2.10,Win32,60,,,,,F,,,,,,,,,,,,,,,2,1,1.5366,0,33,33,33,1,2,NEW,SIMILAR,,,,,,,,
,,,,,,,,,,,,,,,,TestWords/GA_MU_ZI.wav,,60fd0ab923541ffcd2260c02,2021-07-31_22h45.39.197,Agingstudy,2020.2.10,Win32,60,,,,,F,,,,,,,,,,,,,,,2,1,0.6367,0,34,34,34,1,2,NEW,NEW,,,,,,,,
,,,,,,,,,,,,,,,,TestWords/KAI_LAY_TA.wav,,60fd0ab923541ffcd2260c02,2021-07-31_22h45.39.197,Agingstudy,2020.2.10,Win32,60,,,,,F,,,,,,,,,,,,,,,1,1,0.0427,0,35,35,35,1,1,OLD,OLD,,,,,,,,
,,,,,,,,,,,,,,,,TestWords/LI_BA_KAY.wav,,60fd0ab923541ffcd2260c02,2021-07-31_22h45.39.197,Agingstudy,2020.2.10,Win32,60,,,,,F,,,,,,,,,,,,,,,2,1,0.6076,0,36,36,36,1,2,NEW,SIMILAR,,,,,,,,
,,,,,,,,,,,,,,,,TestWords/KO_SU_FAI.wav,,60fd0ab923541ffcd2260c02,2021-07-31_22h45.39.197,Agingstudy,2020.2.10,Win32,60,,,,,F,,,,,,,,,,,,,,,1,1,2.2745,0,37,37,37,1,1,OLD,OLD,,,,,,,,
,,,,,,,,,,,,,,,,TestWords/RAY_PA_TI.wav,,60fd0ab923541ffcd2260c02,2021-07-31_22h45.39.197,Agingstudy,2020.2.10,Win32,60,,,,,F,,,,,,,,,,,,,,,1,1,0.931,0,38,38,38,1,1,OLD,OLD,,,,,,,,
,,,,,,,,,,,,,,,,TestWords/TAI_SA_GI.wav,,60fd0ab923541ffcd2260c02,2021-07-31_22h45.39.197,Agingstudy,2020.2.10,Win32,60,,,,,F,,,,,,,,,,,,,,,2,1,188.5647,0,39,39,39,1,2,NEW,NEW,,,,,,,,
,,,,,,,,,,,,,,,,TestWords/DAI_RU_CHI.wav,,60fd0ab923541ffcd2260c02,2021-07-31_22h45.39.197,Agingstudy,2020.2.10,Win32,60,,,,,F,,,,,,,,,,,,,,,1,1,0.4423,0,40,40,40,1,1,OLD,OLD,,,,,,,,
,,,,,,,,,,,,,,,,TestWords/GA_MU_ZI.wav,,60fd0ab923541ffcd2260c02,2021-07-31_22h45.39.197,Agingstudy,2020.2.10,Win32,60,,,,,F,,,,,,,,,,,,,,,2,0,0.1704,0,41,41,41,1,1,OLD,OLD,,,,,,,,
,,,,,,,,,,,,,,,,TestWords/KAI_LAY_TA.wav,,60fd0ab923541ffcd2260c02,2021-07-31_22h45.39.197,Agingstudy,2020.2.10,Win32,60,,,,,F,,,,,,,,,,,,,,,1,1,0.4328,0,42,42,42,1,1,OLD,OLD,,,,,,,,
,,,,,,,,,,,,,,,,TestWords/GI_SA_TAI.wav,,60fd0ab923541ffcd2260c02,2021-07-31_22h45.39.197,Agingstudy,2020.2.10,Win32,60,,,,,F,,,,,,,,,,,,,,,2,1,0.2994,0,43,43,43,1,2,NEW,SIMILAR,,,,,,,,
,,,,,,,,,,,,,,,,TestWords/BA_LI_KAY.wav,,60fd0ab923541ffcd2260c02,2021-07-31_22h45.39.197,Agingstudy,2020.2.10,Win32,60,,,,,F,,,,,,,,,,,,,,,1,0,0.6746,0,44,44,44,1,2,NEW,SIMILAR,,,,,,,,
,,,,,,,,,,,,,,,,TestWords/KO_SU_FAI.wav,,60fd0ab923541ffcd2260c02,2021-07-31_22h45.39.197,Agingstudy,2020.2.10,Win32,60,,,,,F,,,,,,,,,,,,,,,1,1,0.1779,0,45,45,45,1,1,OLD,OLD,,,,,,,,
,,,,,,,,,,,,,,,,TestWords/RAY_PA_TI.wav,,60fd0ab923541ffcd2260c02,2021-07-31_22h45.39.197,Agingstudy,2020.2.10,Win32,60,,,,,F,,,,,,,,,,,,,,,1,1,0.0431,0,46,46,46,1,1,OLD,OLD,,,,,,,,
,,,,,,,,,,,,,,,,TestWords/GA_MU_ZI.wav,,60fd0ab923541ffcd2260c02,2021-07-31_22h45.39.197,Agingstudy,2020.2.10,Win32,60,,,,,F,,,,,,,,,,,,,,,2,0,0.9592,0,47,47,47,1,1,OLD,OLD,,,,,,,,
,,,,,,,,,,,,,,,,TestWords/LU_HAI_BO.wav,,60fd0ab923541ffcd2260c02,2021-07-31_22h45.39.197,Agingstudy,2020.2.10,Win32,60,,,,,F,,,,,,,,,,,,,,,2,1,0.3159,0,48,48,48,1,2,NEW,NEW,,,,,,,,
,,,,,,,,,,,,,,,,TestWords/KAI_LAY_TA.wav,,60fd0ab923541ffcd2260c02,2021-07-31_22h45.39.197,Agingstudy,2020.2.10,Win32,60,,,,,F,,,,,,,,,,,,,,,1,1,0.081,0,49,49,49,1,1,OLD,OLD,,,,,,,,
,,,,,,,,,,,,,,,,TestWords/DAI_RU_CHI.wav,,60fd0ab923541ffcd2260c02,2021-07-31_22h45.39.197,Agingstudy,2020.2.10,Win32,60,,,,,F,,,,,,,,,,,,,,,1,1,0.4276,0,50,50,50,1,1,OLD,OLD,,,,,,,,
,,,,,,,,,,,,,,,,TestWords/GI_TAI_SA.wav,,60fd0ab923541ffcd2260c02,2021-07-31_22h45.39.197,Agingstudy,2020.2.10,Win32,60,,,,,F,,,,,,,,,,,,,,,2,1,0.1707,0,51,51,51,1,2,NEW,SIMILAR,,,,,,,,
,,,,,,,,,,,,,,,,TestWords/LI_KAY_BA.wav,,60fd0ab923541ffcd2260c02,2021-07-31_22h45.39.197,Agingstudy,2020.2.10,Win32,60,,,,,F,,,,,,,,,,,,,,,2,1,0.5771,0,52,52,52,1,2,NEW,SIMILAR,,,,,,,,
,,,,,,,,,,,,,,,,TestWords/RAY_PA_TI.wav,,60fd0ab923541ffcd2260c02,2021-07-31_22h45.39.197,Agingstudy,2020.2.10,Win32,60,,,,,F,,,,,,,,,,,,,,,1,1,0.4324,0,53,53,53,1,1,OLD,OLD,,,,,,,,
,,,,,,,,,,,,,,,,TestWords/KO_SU_FAI.wav,,60fd0ab923541ffcd2260c02,2021-07-31_22h45.39.197,Agingstudy,2020.2.10,Win32,60,,,,,F,,,,,,,,,,,,,,,1,1,0.5699,0,54,54,54,1,1,OLD,OLD,,,,,,,,
,,,,,,,,,,,,,,,,TestWords/DAY_PU_MO.wav,,60fd0ab923541ffcd2260c02,2021-07-31_22h45.39.197,Agingstudy,2020.2.10,Win32,60,,,,,F,,,,,,,,,,,,,,,2,1,0.5769,0,55,55,55,1,2,NEW,NEW,,,,,,,,
,,,,,,,,,,,,,,,,TestWords/KAI_LAY_TA.wav,,60fd0ab923541ffcd2260c02,2021-07-31_22h45.39.197,Agingstudy,2020.2.10,Win32,60,,,,,F,,,,,,,,,,,,,,,1,1,0.1281,0,56,56,56,1,1,OLD,OLD,,,,,,,,
,,,,,,,,,,,,,,,,TestWords/GA_MU_ZI.wav,,60fd0ab923541ffcd2260c02,2021-07-31_22h45.39.197,Agingstudy,2020.2.10,Win32,60,,,,,F,,,,,,,,,,,,,,,1,1,0.5207,0,57,57,57,1,1,OLD,OLD,,,,,,,,
,,,,,,,,,,,,,,,,TestWords/CHU_LA_PAY.wav,,60fd0ab923541ffcd2260c02,2021-07-31_22h45.39.197,Agingstudy,2020.2.10,Win32,60,,,,,F,,,,,,,,,,,,,,,2,1,0.4704,0,58,58,58,1,2,NEW,NEW,,,,,,,,
,,,,,,,,,,,,,,,,TestWords/DAI_RU_CHI.wav,,60fd0ab923541ffcd2260c02,2021-07-31_22h45.39.197,Agingstudy,2020.2.10,Win32,60,,,,,F,,,,,,,,,,,,,,,1,1,6.293,0,59,59,59,1,1,OLD,OLD,,,,,,,,
,,,,,,,,,,,,,,,,TestWords/SA_TAI_GI.wav,,60fd0ab923541ffcd2260c02,2021-07-31_22h45.39.197,Agingstudy,2020.2.10,Win32,60,,,,,F,,,,,,,,,,,,,,,2,1,0.2425,0,60,60,60,1,2,NEW,SIMILAR,,,,,,,,
,,,,,,,,,,,,,,,,TestWords/RAY_PA_TI.wav,,60fd0ab923541ffcd2260c02,2021-07-31_22h45.39.197,Agingstudy,2020.2.10,Win32,60,,,,,F,,,,,,,,,,,,,,,1,1,0.0324,0,61,61,61,1,1,OLD,OLD,,,,,,,,
,,,,,,,,,,,,,,,,TestWords/KAI_LAY_TA.wav,,60fd0ab923541ffcd2260c02,2021-07-31_22h45.39.197,Agingstudy,2020.2.10,Win32,60,,,,,F,,,,,,,,,,,,,,,1,1,0.5548,0,62,62,62,1,1,OLD,OLD,,,,,,,,
,,,,,,,,,,,,,,,,TestWords/FU_RAI_ZO.wav,,60fd0ab923541ffcd2260c02,2021-07-31_22h45.39.197,Agingstudy,2020.2.10,Win32,60,,,,,F,,,,,,,,,,,,,,,2,1,0.3405,0,63,63,63,1,2,NEW,NEW,,,,,,,,
,,,,,,,,,,,,,,,,TestWords/KO_SU_FAI.wav,,60fd0ab923541ffcd2260c02,2021-07-31_22h45.39.197,Agingstudy,2020.2.10,Win32,60,,,,,F,,,,,,,,,,,,,,,1,1,0.474,0,64,64,64,1,1,OLD,OLD,,,,,,,,
,,,,,,,,,,,,,,,,TestWords/GA_MU_ZI.wav,,60fd0ab923541ffcd2260c02,2021-07-31_22h45.39.197,Agingstudy,2020.2.10,Win32,60,,,,,F,,,,,,,,,,,,,,,1,1,0.3306,0,65,65,65,1,1,OLD,OLD,,,,,,,,
,,,,,,,,,,,,,,,,TestWords/DAY_MO_PU.wav,,60fd0ab923541ffcd2260c02,2021-07-31_22h45.39.197,Agingstudy,2020.2.10,Win32,60,,,,,F,,,,,,,,,,,,,,,2,1,0.1884,0,66,66,66,1,2,NEW,SIMILAR,,,,,,,,
,,,,,,,,,,,,,,,,TestWords/DAI_RU_CHI.wav,,60fd0ab923541ffcd2260c02,2021-07-31_22h45.39.197,Agingstudy,2020.2.10,Win32,60,,,,,F,,,,,,,,,,,,,,,1,1,0.5774,0,67,67,67,1,1,OLD,OLD,,,,,,,,
,,,,,,,,,,,,,,,,TestWords/FI_GU_CHA.wav,,60fd0ab923541ffcd2260c02,2021-07-31_22h45.39.197,Agingstudy,2020.2.10,Win32,60,,,,,F,,,,,,,,,,,,,,,2,1,0.0829,0,68,68,68,1,2,NEW,NEW,,,,,,,,
,,,,,,,,,,,,,,,,TestWords/GA_MU_ZI.wav,,60fd0ab923541ffcd2260c02,2021-07-31_22h45.39.197,Agingstudy,2020.2.10,Win32,60,,,,,F,,,,,,,,,,,,,,,1,1,0.7493,0,69,69,69,1,1,OLD,OLD,,,,,,,,
,,,,,,,,,,,,,,,,TestWords/RAY_PA_TI.wav,,60fd0ab923541ffcd2260c02,2021-07-31_22h45.39.197,Agingstudy,2020.2.10,Win32,60,,,,,F,,,,,,,,,,,,,,,1,1,0.3006,0,70,70,70,1,1,OLD,OLD,,,,,,,,
,,,,,,,,,,,,,,,,TestWords/SA_GI_TAI.wav,,60fd0ab923541ffcd2260c02,2021-07-31_22h45.39.197,Agingstudy,2020.2.10,Win32,60,,,,,F,,,,,,,,,,,,,,,2,1,0.5487,0,71,71,71,1,2,NEW,SIMILAR,,,,,,,,
,,,,,,,,,,,,,,,,TestWords/MO_DAY_PU.wav,,60fd0ab923541ffcd2260c02,2021-07-31_22h45.39.197,Agingstudy,2020.2.10,Win32,60,,,,,F,,,,,,,,,,,,,,,1,0,0.5335,0,72,72,72,1,2,NEW,SIMILAR,,,,,,,,
,,,,,,,,,,,,,,,,TestWords/KO_SU_FAI.wav,,60fd0ab923541ffcd2260c02,2021-07-31_22h45.39.197,Agingstudy,2020.2.10,Win32,60,,,,,F,,,,,,,,,,,,,,,1,1,0.1603,0,73,73,73,1,1,OLD,OLD,,,,,,,,
,,,,,,,,,,,,,,,,TestWords/RAI_ZO_FU.wav,,60fd0ab923541ffcd2260c02,2021-07-31_22h45.39.197,Agingstudy,2020.2.10,Win32,60,,,,,F,,,,,,,,,,,,,,,2,1,1.1556,0,74,74,74,1,2,NEW,SIMILAR,,,,,,,,
,,,,,,,,,,,,,,,,TestWords/GA_MU_ZI.wav,,60fd0ab923541ffcd2260c02,2021-07-31_22h45.39.197,Agingstudy,2020.2.10,Win32,60,,,,,F,,,,,,,,,,,,,,,1,1,0.3971,0,75,75,75,1,1,OLD,OLD,,,,,,,,
,,,,,,,,,,,,,,,,TestWords/DAI_RU_CHI.wav,,60fd0ab923541ffcd2260c02,2021-07-31_22h45.39.197,Agingstudy,2020.2.10,Win32,60,,,,,F,,,,,,,,,,,,,,,1,1,0.1578,0,76,76,76,1,1,OLD,OLD,,,,,,,,
,,,,,,,,,,,,,,,,TestWords/TAI_GI_SA.wav,,60fd0ab923541ffcd2260c02,2021-07-31_22h45.39.197,Agingstudy,2020.2.10,Win32,60,,,,,F,,,,,,,,,,,,,,,1,0,1.7984,0,77,77,77,1,2,NEW,SIMILAR,,,,,,,,
,,,,,,,,,,,,,,,,TestWords/RAY_PA_TI.wav,,60fd0ab923541ffcd2260c02,2021-07-31_22h45.39.197,Agingstudy,2020.2.10,Win32,60,,,,,F,,,,,,,,,,,,,,,1,1,0.0929,0,78,78,78,1,1,OLD,OLD,,,,,,,,
,,,,,,,,,,,,,,,,TestWords/PU_DAY_MO.wav,,60fd0ab923541ffcd2260c02,2021-07-31_22h45.39.197,Agingstudy,2020.2.10,Win32,60,,,,,F,,,,,,,,,,,,,,,2,1,0.1698,0,79,79,79,1,2,NEW,SIMILAR,,,,,,,,
,,,,,,,,,,,,,,,,TestWords/KO_SU_FAI.wav,,60fd0ab923541ffcd2260c02,2021-07-31_22h45.39.197,Agingstudy,2020.2.10,Win32,60,,,,,F,,,,,,,,,,,,,,,1,1,0.1847,0,80,80,80,1,1,OLD,OLD,,,,,,,,
,,,,,,,,,,,,,,,,TestWords/ZO_RAI_FU.wav,,60fd0ab923541ffcd2260c02,2021-07-31_22h45.39.197,Agingstudy,2020.2.10,Win32,60,,,,,F,,,,,,,,,,,,,,,2,1,1.0204,0,81,81,81,1,2,NEW,SIMILAR,,,,,,,,
,,,,,,,,,,,,,,,,TestWords/GA_MU_ZI.wav,,60fd0ab923541ffcd2260c02,2021-07-31_22h45.39.197,Agingstudy,2020.2.10,Win32,60,,,,,F,,,,,,,,,,,,,,,1,1,0.1787,0,82,82,82,1,1,OLD,OLD,,,,,,,,
,,,,,,,,,,,,,,,,TestWords/RAY_PA_TI.wav,,60fd0ab923541ffcd2260c02,2021-07-31_22h45.39.197,Agingstudy,2020.2.10,Win32,60,,,,,F,,,,,,,,,,,,,,,1,1,0.0733,0,83,83,83,1,1,OLD,OLD,,,,,,,,
,,,,,,,,,,,,,,,,TestWords/DAI_RU_CHI.wav,,60fd0ab923541ffcd2260c02,2021-07-31_22h45.39.197,Agingstudy,2020.2.10,Win32,60,,,,,F,,,,,,,,,,,,,,,1,1,0.0668,0,84,84,84,1,1,OLD,OLD,,,,,,,,
,,,,,,,,,,,,,,,,TestWords/GA_MU_ZI.wav,,60fd0ab923541ffcd2260c02,2021-07-31_22h45.39.197,Agingstudy,2020.2.10,Win32,60,,,,,F,,,,,,,,,,,,,,,2,0,0.3274,0,85,85,85,1,1,OLD,OLD,,,,,,,,
,,,,,,,,,,,,,,,,TestWords/NO_WA_BAY.wav,,60fd0ab923541ffcd2260c02,2021-07-31_22h45.39.197,Agingstudy,2020.2.10,Win32,60,,,,,F,,,,,,,,,,,,,,,2,1,0.1456,0,86,86,86,1,2,NEW,NEW,,,,,,,,
,,,,,,,,,,,,,,,,TestWords/FU_ZO_RAI.wav,,60fd0ab923541ffcd2260c02,2021-07-31_22h45.39.197,Agingstudy,2020.2.10,Win32,60,,,,,F,,,,,,,,,,,,,,,2,1,0.8243,0,87,87,87,1,2,NEW,SIMILAR,,,,,,,,
,,,,,,,,,,,,,,,,TestWords/KO_SU_FAI.wav,,60fd0ab923541ffcd2260c02,2021-07-31_22h45.39.197,Agingstudy,2020.2.10,Win32,60,,,,,F,,,,,,,,,,,,,,,1,1,0.5696,0,88,88,88,1,1,OLD,OLD,,,,,,,,
,,,,,,,,,,,,,,,,TestWords/PU_MO_DAY.wav,,60fd0ab923541ffcd2260c02,2021-07-31_22h45.39.197,Agingstudy,2020.2.10,Win32,60,,,,,F,,,,,,,,,,,,,,,2,1,3.6326,0,89,89,89,1,2,NEW,SIMILAR,,,,,,,,
,,,,,,,,,,,,,,,,TestWords/RAY_PA_TI.wav,,60fd0ab923541ffcd2260c02,2021-07-31_22h45.39.197,Agingstudy,2020.2.10,Win32,60,,,,,F,,,,,,,,,,,,,,,1,1,0.5093,0,90,90,90,1,1,OLD,OLD,,,,,,,,
,,,,,,,,,,,,,,,,TestWords/DAI_RU_CHI.wav,,60fd0ab923541ffcd2260c02,2021-07-31_22h45.39.197,Agingstudy,2020.2.10,Win32,60,,,,,F,,,,,,,,,,,,,,,1,1,0.5214,0,91,91,91,1,1,OLD,OLD,,,,,,,,
,,,,,,,,,,,,,,,,TestWords/RAI_FU_ZO.wav,,60fd0ab923541ffcd2260c02,2021-07-31_22h45.39.197,Agingstudy,2020.2.10,Win32,60,,,,,F,,,,,,,,,,,,,,,1,0,0.8794,0,92,92,92,1,2,NEW,SIMILAR,,,,,,,,
,,,,,,,,,,,,,,,,TestWords/GA_MU_ZI.wav,,60fd0ab923541ffcd2260c02,2021-07-31_22h45.39.197,Agingstudy,2020.2.10,Win32,60,,,,,F,,,,,,,,,,,,,,,2,0,0.8815,0,93,93,93,1,1,OLD,OLD,,,,,,,,
,,,,,,,,,,,,,,,,TestWords/HA_SI_JAI.wav,,60fd0ab923541ffcd2260c02,2021-07-31_22h45.39.197,Agingstudy,2020.2.10,Win32,60,,,,,F,,,,,,,,,,,,,,,2,1,0.274,0,94,94,94,1,2,NEW,NEW,,,,,,,,
,,,,,,,,,,,,,,,,TestWords/MO_PU_DAY.wav,,60fd0ab923541ffcd2260c02,2021-07-31_22h45.39.197,Agingstudy,2020.2.10,Win32,60,,,,,F,,,,,,,,,,,,,,,2,1,0.3397,0,95,95,95,1,2,NEW,SIMILAR,,,,,,,,
,,,,,,,,,,,,,,,,TestWords/LA_ZAY_CHAI.wav,,60fd0ab923541ffcd2260c02,2021-07-31_22h45.39.197,Agingstudy,2020.2.10,Win32,60,,,,,F,,,,,,,,,,,,,,,2,1,0.158,0,96,96,96,1,2,NEW,NEW,,,,,,,,
,,,,,,,,,,,,,,,,TestWords/GA_MU_ZI.wav,,60fd0ab923541ffcd2260c02,2021-07-31_22h45.39.197,Agingstudy,2020.2.10,Win32,60,,,,,F,,,,,,,,,,,,,,,2,0,0.2184,0,97,97,97,1,1,OLD,OLD,,,,,,,,
,,,,,,,,,,,,,,,,TestWords/ZO_FU_RAI.wav,,60fd0ab923541ffcd2260c02,2021-07-31_22h45.39.197,Agingstudy,2020.2.10,Win32,60,,,,,F,,,,,,,,,,,,,,,1,0,0.1942,0,98,98,98,1,2,NEW,SIMILAR,,,,,,,,
,,,,,,,,,,,,,,,,TestWords/WAI_RO_JU.wav,,60fd0ab923541ffcd2260c02,2021-07-31_22h45.39.197,Agingstudy,2020.2.10,Win32,60,,,,,F,,,,,,,,,,,,,,,2,1,0.5679,0,99,99,99,1,2,NEW,NEW,,,,,,,,
,,,,,,,,,,,,,,,,,,60fd0ab923541ffcd2260c02,2021-07-31_22h45.39.197,Agingstudy,2020.2.10,Win32,60,,,,,,,,,,,,,,,,,,,,,,,,,,,,,,,0,0,0,0,1,,,
,,,,,,,,,,,,,,,,,,60fd0ab923541ffcd2260c02,2021-07-31_22h45.39.197,Agingstudy,2020.2.10,Win32,60,,,,,,,,,,,,,,,,,,,,,,,,,,,,,,,,,,,,return,7.9031,
