Welcome0Continue.keys,Welcome0Continue.rt,SoundCheckBegin.keys,SoundCheckBegin.rt,SoundCheckEndKey.keys,SoundCheckEndKey.rt,HeadphoneContinueKey.keys,HeadphoneContinueKey.rt,CheckResp.keys,CheckResp.corr,CheckResp.rt,HeadphoneLoop.thisRepN,HeadphoneLoop.thisTrialN,HeadphoneLoop.thisN,HeadphoneLoop.thisIndex,HeadphoneLoop.ran,File,Correct,participant,date,expName,psychopyVersion,OS,frameRate,RepeatAgainKey.keys,RepeatAgainKey.rt,RepeatAgainLoop.thisRepN,RepeatAgainLoop.thisTrialN,RepeatAgainLoop.thisN,RepeatAgainLoop.thisIndex,RepeatAgainLoop.ran,Headphone_retest.thisRepN,Headphone_retest.thisTrialN,Headphone_retest.thisN,Headphone_retest.thisIndex,Headphone_retest.ran,ContinueKey8.keys,ContinueKey8.rt,MSTWelcomeContKey.keys,MSTWelcomeContKey.rt,Condition,MSTTrainIntroKey.keys,MSTTrainIntroKey.rt,MSTTrainKeys.keys,MSTTrainKeys.corr,MSTTrainKeys.rt,MSTTrainLoop.thisRepN,MSTTrainLoop.thisTrialN,MSTTrainLoop.thisN,MSTTrainLoop.thisIndex,MSTTrainLoop.ran,SoundFile,Type,MSTTestBeginKey.keys,MSTTestBeginKey.rt,MST_resp.keys,MST_resp.corr,MST_resp.rt,MSTPlayLoop.thisRepN,MSTPlayLoop.thisTrialN,MSTPlayLoop.thisN,MSTPlayLoop.thisIndex,MSTPlayLoop.ran,WordCorrect,Correct_type,WordType
space,4.3266,space,2.8333,space,2.1313,space,15.1049,2,0,5.3486,0,0,0,1,1,Headphone/t1_2.wav,1,60fda2bd4ef51b5d0e2c0799,2021-08-06_00h24.53.085,Agingstudy,2020.2.10,MacIntel,60,,,,,,,,,,,,,,,,,,,,,,,,,,,,,,,,,,,,,,,,,,
,,,,,,,,3,0,1.0359,0,1,1,2,1,Headphone/t2_1.wav,2,60fda2bd4ef51b5d0e2c0799,2021-08-06_00h24.53.085,Agingstudy,2020.2.10,MacIntel,60,,,,,,,,,,,,,,,,,,,,,,,,,,,,,,,,,,,,,,,,,,
,,,,,,,,2,1,0.6876,0,2,2,3,1,Headphone/t2_2.wav,2,60fda2bd4ef51b5d0e2c0799,2021-08-06_00h24.53.085,Agingstudy,2020.2.10,MacIntel,60,,,,,,,,,,,,,,,,,,,,,,,,,,,,,,,,,,,,,,,,,,
,,,,,,,,1,0,1.2265,0,3,3,4,1,Headphone/t3_1.wav,3,60fda2bd4ef51b5d0e2c0799,2021-08-06_00h24.53.085,Agingstudy,2020.2.10,MacIntel,60,,,,,,,,,,,,,,,,,,,,,,,,,,,,,,,,,,,,,,,,,,
,,,,,,,,3,1,0.6358,0,4,4,5,1,Headphone/t3_2.wav,3,60fda2bd4ef51b5d0e2c0799,2021-08-06_00h24.53.085,Agingstudy,2020.2.10,MacIntel,60,,,,,,,,,,,,,,,,,,,,,,,,,,,,,,,,,,,,,,,,,,
,,,,,,,,3,0,0.3673,0,5,5,0,1,Headphone/t1_1.wav,1,60fda2bd4ef51b5d0e2c0799,2021-08-06_00h24.53.085,Agingstudy,2020.2.10,MacIntel,60,,,,,,,,,,,,,,,,,,,,,,,,,,,,,,,,,,,,,,,,,,
,,,,,,,,,,,,,,,,,,60fda2bd4ef51b5d0e2c0799,2021-08-06_00h24.53.085,Agingstudy,2020.2.10,MacIntel,60,space,5.2708,0,0,0,0,1,,,,,,,,,,,,,,,,,,,,,,,,,,,,,,,,,,,
,,,,,,,,,,,,,,,,,,60fda2bd4ef51b5d0e2c0799,2021-08-06_00h24.53.085,Agingstudy,2020.2.10,MacIntel,60,,,,,,,,0,0,0,0,1,,,,,,,,,,,,,,,,,,,,,,,,,,,,,,
,,,,,,,,3,1,0.8628,0,0,0,5,1,Headphone/t3_2.wav,3,60fda2bd4ef51b5d0e2c0799,2021-08-06_00h24.53.085,Agingstudy,2020.2.10,MacIntel,60,,,,,,,,,,,,,,,,,,,,,,,,,,,,,,,,,,,,,,,,,,
,,,,,,,,1,1,0.5187,0,1,1,0,1,Headphone/t1_1.wav,1,60fda2bd4ef51b5d0e2c0799,2021-08-06_00h24.53.085,Agingstudy,2020.2.10,MacIntel,60,,,,,,,,,,,,,,,,,,,,,,,,,,,,,,,,,,,,,,,,,,
,,,,,,,,1,0,0.569,0,2,2,4,1,Headphone/t3_1.wav,3,60fda2bd4ef51b5d0e2c0799,2021-08-06_00h24.53.085,Agingstudy,2020.2.10,MacIntel,60,,,,,,,,,,,,,,,,,,,,,,,,,,,,,,,,,,,,,,,,,,
,,,,,,,,1,1,0.6712,0,3,3,1,1,Headphone/t1_2.wav,1,60fda2bd4ef51b5d0e2c0799,2021-08-06_00h24.53.085,Agingstudy,2020.2.10,MacIntel,60,,,,,,,,,,,,,,,,,,,,,,,,,,,,,,,,,,,,,,,,,,
,,,,,,,,2,1,1.0789,0,4,4,2,1,Headphone/t2_1.wav,2,60fda2bd4ef51b5d0e2c0799,2021-08-06_00h24.53.085,Agingstudy,2020.2.10,MacIntel,60,,,,,,,,,,,,,,,,,,,,,,,,,,,,,,,,,,,,,,,,,,
,,,,,,,,2,1,1.0685,0,5,5,3,1,Headphone/t2_2.wav,2,60fda2bd4ef51b5d0e2c0799,2021-08-06_00h24.53.085,Agingstudy,2020.2.10,MacIntel,60,,,,,,,,,,,,,,,,,,,,,,,,,,,,,,,,,,,,,,,,,,
,,,,,,,,,,,,,,,,,2,60fda2bd4ef51b5d0e2c0799,2021-08-06_00h24.53.085,Agingstudy,2020.2.10,MacIntel,60,,,,,,,,,,,,,space,8.9203,space,2.6357,1,space,1.6109,2,1,7.0788,0,0,0,0,1,Training/FO_YI_LAY.wav,NEW,,,,,,,,,,,,,
,,,,,,,,,,,,,,,,,1,60fda2bd4ef51b5d0e2c0799,2021-08-06_00h24.53.085,Agingstudy,2020.2.10,MacIntel,60,,,,,,,,,,,,,,,,,,,,2,0,2.6806,0,1,1,1,1,Training/FO_YI_LAY.wav,OLD,,,,,,,,,,,,,
,,,,,,,,,,,,,,,,,2,60fda2bd4ef51b5d0e2c0799,2021-08-06_00h24.53.085,Agingstudy,2020.2.10,MacIntel,60,,,,,,,,,,,,,,,,,,,,2,1,3.2474,0,2,2,2,1,Training/YO_BU_JAY.wav,NEW,,,,,,,,,,,,,
,,,,,,,,,,,,,,,,,2,60fda2bd4ef51b5d0e2c0799,2021-08-06_00h24.53.085,Agingstudy,2020.2.10,MacIntel,60,,,,,,,,,,,,,,,,,,,,1,0,2.0495,0,3,3,3,1,Training/JAY_YO_BU.wav,SIMILAR,,,,,,,,,,,,,
,,,,,,,,,,,,,,,,,1,60fda2bd4ef51b5d0e2c0799,2021-08-06_00h24.53.085,Agingstudy,2020.2.10,MacIntel,60,,,,,,,,,,,,,,,,,,,,1,1,1.5333,0,4,4,4,1,Training/FO_YI_LAY.wav,OLD,,,,,,,,,,,,,
,,,,,,,,,,,,,,,,TestWords/CHU_LA_PAY.wav,,60fda2bd4ef51b5d0e2c0799,2021-08-06_00h24.53.085,Agingstudy,2020.2.10,MacIntel,60,,,,,,,,,,,,,,,,,D,,,,,,,,,,,,,space,5.6607,1,0,2.9515,0,0,0,0,1,2,NEW,NEW
,,,,,,,,,,,,,,,,TestWords/FI_GU_CHA.wav,,60fda2bd4ef51b5d0e2c0799,2021-08-06_00h24.53.085,Agingstudy,2020.2.10,MacIntel,60,,,,,,,,,,,,,,,,,D,,,,,,,,,,,,,,,2,1,0.5858,0,1,1,1,1,2,NEW,NEW
,,,,,,,,,,,,,,,,TestWords/RAI_ZO_FU.wav,,60fda2bd4ef51b5d0e2c0799,2021-08-06_00h24.53.085,Agingstudy,2020.2.10,MacIntel,60,,,,,,,,,,,,,,,,,D,,,,,,,,,,,,,,,2,1,0.4953,0,2,2,2,1,2,NEW,NEW
,,,,,,,,,,,,,,,,TestWords/DAI_RU_CHI.wav,,60fda2bd4ef51b5d0e2c0799,2021-08-06_00h24.53.085,Agingstudy,2020.2.10,MacIntel,60,,,,,,,,,,,,,,,,,D,,,,,,,,,,,,,,,2,1,0.4382,0,3,3,3,1,2,NEW,NEW
,,,,,,,,,,,,,,,,TestWords/GA_MU_ZI.wav,,60fda2bd4ef51b5d0e2c0799,2021-08-06_00h24.53.085,Agingstudy,2020.2.10,MacIntel,60,,,,,,,,,,,,,,,,,D,,,,,,,,,,,,,,,2,1,0.561,0,4,4,4,1,2,NEW,NEW
,,,,,,,,,,,,,,,,TestWords/DA_CHU_VAI.wav,,60fda2bd4ef51b5d0e2c0799,2021-08-06_00h24.53.085,Agingstudy,2020.2.10,MacIntel,60,,,,,,,,,,,,,,,,,D,,,,,,,,,,,,,,,1,0,0.3083,0,5,5,5,1,2,NEW,NEW
,,,,,,,,,,,,,,,,TestWords/ZO_RAI_FU.wav,,60fda2bd4ef51b5d0e2c0799,2021-08-06_00h24.53.085,Agingstudy,2020.2.10,MacIntel,60,,,,,,,,,,,,,,,,,D,,,,,,,,,,,,,,,2,1,1.802,0,6,6,6,1,2,NEW,SIMILAR
,,,,,,,,,,,,,,,,TestWords/BA_KAY_LI.wav,,60fda2bd4ef51b5d0e2c0799,2021-08-06_00h24.53.085,Agingstudy,2020.2.10,MacIntel,60,,,,,,,,,,,,,,,,,D,,,,,,,,,,,,,,,2,1,0.0373,0,7,7,7,1,2,NEW,NEW
,,,,,,,,,,,,,,,,TestWords/VAI_HO_LA.wav,,60fda2bd4ef51b5d0e2c0799,2021-08-06_00h24.53.085,Agingstudy,2020.2.10,MacIntel,60,,,,,,,,,,,,,,,,,D,,,,,,,,,,,,,,,2,1,1.4846,0,8,8,8,1,2,NEW,NEW
,,,,,,,,,,,,,,,,TestWords/DAI_RU_CHI.wav,,60fda2bd4ef51b5d0e2c0799,2021-08-06_00h24.53.085,Agingstudy,2020.2.10,MacIntel,60,,,,,,,,,,,,,,,,,D,,,,,,,,,,,,,,,2,0,0.2368,0,9,9,9,1,1,OLD,OLD
,,,,,,,,,,,,,,,,TestWords/RAY_PA_TI.wav,,60fda2bd4ef51b5d0e2c0799,2021-08-06_00h24.53.085,Agingstudy,2020.2.10,MacIntel,60,,,,,,,,,,,,,,,,,D,,,,,,,,,,,,,,,2,1,0.0955,0,10,10,10,1,2,NEW,NEW
,,,,,,,,,,,,,,,,TestWords/NO_WA_BAY.wav,,60fda2bd4ef51b5d0e2c0799,2021-08-06_00h24.53.085,Agingstudy,2020.2.10,MacIntel,60,,,,,,,,,,,,,,,,,D,,,,,,,,,,,,,,,2,1,0.8696,0,11,11,11,1,2,NEW,NEW
,,,,,,,,,,,,,,,,TestWords/GA_MU_ZI.wav,,60fda2bd4ef51b5d0e2c0799,2021-08-06_00h24.53.085,Agingstudy,2020.2.10,MacIntel,60,,,,,,,,,,,,,,,,,D,,,,,,,,,,,,,,,2,0,1.6631,0,12,12,12,1,1,OLD,OLD
,,,,,,,,,,,,,,,,TestWords/WAI_VU_NA.wav,,60fda2bd4ef51b5d0e2c0799,2021-08-06_00h24.53.085,Agingstudy,2020.2.10,MacIntel,60,,,,,,,,,,,,,,,,,D,,,,,,,,,,,,,,,2,1,2.161,0,13,13,13,1,2,NEW,NEW
,,,,,,,,,,,,,,,,TestWords/KAY_LI_BA.wav,,60fda2bd4ef51b5d0e2c0799,2021-08-06_00h24.53.085,Agingstudy,2020.2.10,MacIntel,60,,,,,,,,,,,,,,,,,D,,,,,,,,,,,,,,,1,0,0.0962,0,14,14,14,1,2,NEW,SIMILAR
,,,,,,,,,,,,,,,,TestWords/FU_RAI_ZO.wav,,60fda2bd4ef51b5d0e2c0799,2021-08-06_00h24.53.085,Agingstudy,2020.2.10,MacIntel,60,,,,,,,,,,,,,,,,,D,,,,,,,,,,,,,,,1,0,0.6614,0,15,15,15,1,2,NEW,SIMILAR
,,,,,,,,,,,,,,,,TestWords/KAI_LAY_TA.wav,,60fda2bd4ef51b5d0e2c0799,2021-08-06_00h24.53.085,Agingstudy,2020.2.10,MacIntel,60,,,,,,,,,,,,,,,,,D,,,,,,,,,,,,,,,1,0,0.6109,0,16,16,16,1,2,NEW,NEW
