Welcome0Continue.keys,Welcome0Continue.rt,SoundCheckBegin.keys,SoundCheckBegin.rt,SoundCheckEndKey.keys,SoundCheckEndKey.rt,HeadphoneContinueKey.keys,HeadphoneContinueKey.rt,CheckResp.keys,CheckResp.corr,CheckResp.rt,HeadphoneLoop.thisRepN,HeadphoneLoop.thisTrialN,HeadphoneLoop.thisN,HeadphoneLoop.thisIndex,HeadphoneLoop.ran,File,Correct,participant,date,expName,psychopyVersion,OS,frameRate,ContinueKey8.keys,ContinueKey8.rt,MSTWelcomeContKey.keys,MSTWelcomeContKey.rt,Condition,MSTTrainIntroKey.keys,MSTTrainIntroKey.rt,MSTTrainKeys.keys,MSTTrainKeys.corr,MSTTrainKeys.rt,MSTTrainLoop.thisRepN,MSTTrainLoop.thisTrialN,MSTTrainLoop.thisN,MSTTrainLoop.thisIndex,MSTTrainLoop.ran,SoundFile,Type,MSTTestBeginKey.keys,MSTTestBeginKey.rt,MST_resp.keys,MST_resp.corr,MST_resp.rt,MSTPlayLoop.thisRepN,MSTPlayLoop.thisTrialN,MSTPlayLoop.thisN,MSTPlayLoop.thisIndex,MSTPlayLoop.ran,WordCorrect,Correct_type,WordType,MSTLoop.thisRepN,MSTLoop.thisTrialN,MSTLoop.thisN,MSTLoop.thisIndex,MSTLoop.ran,EndAllKey.keys,EndAllKey.rt,FeedbackResp.text
space,9.072,space,4.5021,space,5.6708,space,10.2088,2,1,2.7193,0,0,0,2,1,Headphone/t2_1.wav,2,60fe09fcc19f506114925fdc,2021-07-26_15h03.48.123,Agingstudy,2020.2.10,MacIntel,60,,,,,,,,,,,,,,,,,,,,,,,,,,,,,,,,,,,,,,
,,,,,,,,3,1,0.5687,0,1,1,5,1,Headphone/t3_2.wav,3,60fe09fcc19f506114925fdc,2021-07-26_15h03.48.123,Agingstudy,2020.2.10,MacIntel,60,,,,,,,,,,,,,,,,,,,,,,,,,,,,,,,,,,,,,,
,,,,,,,,1,1,0.2734,0,2,2,1,1,Headphone/t1_2.wav,1,60fe09fcc19f506114925fdc,2021-07-26_15h03.48.123,Agingstudy,2020.2.10,MacIntel,60,,,,,,,,,,,,,,,,,,,,,,,,,,,,,,,,,,,,,,
,,,,,,,,2,1,0.2759,0,3,3,3,1,Headphone/t2_2.wav,2,60fe09fcc19f506114925fdc,2021-07-26_15h03.48.123,Agingstudy,2020.2.10,MacIntel,60,,,,,,,,,,,,,,,,,,,,,,,,,,,,,,,,,,,,,,
,,,,,,,,3,1,1.1875,0,4,4,4,1,Headphone/t3_1.wav,3,60fe09fcc19f506114925fdc,2021-07-26_15h03.48.123,Agingstudy,2020.2.10,MacIntel,60,,,,,,,,,,,,,,,,,,,,,,,,,,,,,,,,,,,,,,
,,,,,,,,1,1,0.7669,0,5,5,0,1,Headphone/t1_1.wav,1,60fe09fcc19f506114925fdc,2021-07-26_15h03.48.123,Agingstudy,2020.2.10,MacIntel,60,,,,,,,,,,,,,,,,,,,,,,,,,,,,,,,,,,,,,,
,,,,,,,,,,,,,,,,,2,60fe09fcc19f506114925fdc,2021-07-26_15h03.48.123,Agingstudy,2020.2.10,MacIntel,60,space,14.6789,space,6.6288,1,space,3.0314,2,1,5.5,0,0,0,0,1,Training/FO_YI_LAY.wav,NEW,,,,,,,,,,,,,,,,,,,,,
,,,,,,,,,,,,,,,,,1,60fe09fcc19f506114925fdc,2021-07-26_15h03.48.123,Agingstudy,2020.2.10,MacIntel,60,,,,,,,,1,1,1.7938,0,1,1,1,1,Training/FO_YI_LAY.wav,OLD,,,,,,,,,,,,,,,,,,,,,
,,,,,,,,,,,,,,,,,2,60fe09fcc19f506114925fdc,2021-07-26_15h03.48.123,Agingstudy,2020.2.10,MacIntel,60,,,,,,,,2,1,0.6207,0,2,2,2,1,Training/YO_BU_JAY.wav,NEW,,,,,,,,,,,,,,,,,,,,,
,,,,,,,,,,,,,,,,,2,60fe09fcc19f506114925fdc,2021-07-26_15h03.48.123,Agingstudy,2020.2.10,MacIntel,60,,,,,,,,2,1,1.4678,0,3,3,3,1,Training/JAY_YO_BU.wav,SIMILAR,,,,,,,,,,,,,,,,,,,,,
,,,,,,,,,,,,,,,,,1,60fe09fcc19f506114925fdc,2021-07-26_15h03.48.123,Agingstudy,2020.2.10,MacIntel,60,,,,,,,,1,1,0.9375,0,4,4,4,1,Training/FO_YI_LAY.wav,OLD,,,,,,,,,,,,,,,,,,,,,
,,,,,,,,,,,,,,,,TestWords/LU_HAI_BO.wav,,60fe09fcc19f506114925fdc,2021-07-26_15h03.48.123,Agingstudy,2020.2.10,MacIntel,60,,,,,B,,,,,,,,,,,,,space,4.6685,2,1,1.6756,0,0,0,0,1,2,NEW,NEW,,,,,,,,
,,,,,,,,,,,,,,,,TestWords/CHU_LA_PAY.wav,,60fe09fcc19f506114925fdc,2021-07-26_15h03.48.123,Agingstudy,2020.2.10,MacIntel,60,,,,,B,,,,,,,,,,,,,,,2,1,1.1316,0,1,1,1,1,2,NEW,NEW,,,,,,,,
,,,,,,,,,,,,,,,,TestWords/RAY_PA_TI.wav,,60fe09fcc19f506114925fdc,2021-07-26_15h03.48.123,Agingstudy,2020.2.10,MacIntel,60,,,,,B,,,,,,,,,,,,,,,2,1,0.8279,0,2,2,2,1,2,NEW,NEW,,,,,,,,
,,,,,,,,,,,,,,,,TestWords/DA_CHU_VAI.wav,,60fe09fcc19f506114925fdc,2021-07-26_15h03.48.123,Agingstudy,2020.2.10,MacIntel,60,,,,,B,,,,,,,,,,,,,,,2,1,0.8474,0,3,3,3,1,2,NEW,NEW,,,,,,,,
,,,,,,,,,,,,,,,,TestWords/DAY_PU_MO.wav,,60fe09fcc19f506114925fdc,2021-07-26_15h03.48.123,Agingstudy,2020.2.10,MacIntel,60,,,,,B,,,,,,,,,,,,,,,2,1,0.6542,0,4,4,4,1,2,NEW,NEW,,,,,,,,
,,,,,,,,,,,,,,,,TestWords/DAI_RU_CHI.wav,,60fe09fcc19f506114925fdc,2021-07-26_15h03.48.123,Agingstudy,2020.2.10,MacIntel,60,,,,,B,,,,,,,,,,,,,,,2,1,0.4004,0,5,5,5,1,2,NEW,NEW,,,,,,,,
,,,,,,,,,,,,,,,,TestWords/RAI_ZO_FU.wav,,60fe09fcc19f506114925fdc,2021-07-26_15h03.48.123,Agingstudy,2020.2.10,MacIntel,60,,,,,B,,,,,,,,,,,,,,,2,1,0.4199,0,6,6,6,1,2,NEW,NEW,,,,,,,,
,,,,,,,,,,,,,,,,TestWords/HO_NAY_VA.wav,,60fe09fcc19f506114925fdc,2021-07-26_15h03.48.123,Agingstudy,2020.2.10,MacIntel,60,,,,,B,,,,,,,,,,,,,,,2,1,0.7366,0,7,7,7,1,2,NEW,NEW,,,,,,,,
,,,,,,,,,,,,,,,,TestWords/RAY_PA_TI.wav,,60fe09fcc19f506114925fdc,2021-07-26_15h03.48.123,Agingstudy,2020.2.10,MacIntel,60,,,,,B,,,,,,,,,,,,,,,2,0,0.5729,0,8,8,8,1,1,OLD,OLD,,,,,,,,
,,,,,,,,,,,,,,,,TestWords/DAY_MO_PU.wav,,60fe09fcc19f506114925fdc,2021-07-26_15h03.48.123,Agingstudy,2020.2.10,MacIntel,60,,,,,B,,,,,,,,,,,,,,,1,0,0.8034,0,9,9,9,1,2,NEW,SIMILAR,,,,,,,,
,,,,,,,,,,,,,,,,TestWords/TAI_SA_GI.wav,,60fe09fcc19f506114925fdc,2021-07-26_15h03.48.123,Agingstudy,2020.2.10,MacIntel,60,,,,,B,,,,,,,,,,,,,,,2,1,0.3684,0,10,10,10,1,2,NEW,NEW,,,,,,,,
,,,,,,,,,,,,,,,,TestWords/DAI_RU_CHI.wav,,60fe09fcc19f506114925fdc,2021-07-26_15h03.48.123,Agingstudy,2020.2.10,MacIntel,60,,,,,B,,,,,,,,,,,,,,,2,0,0.9844,0,11,11,11,1,1,OLD,OLD,,,,,,,,
,,,,,,,,,,,,,,,,TestWords/GA_MU_ZI.wav,,60fe09fcc19f506114925fdc,2021-07-26_15h03.48.123,Agingstudy,2020.2.10,MacIntel,60,,,,,B,,,,,,,,,,,,,,,2,1,0.3358,0,12,12,12,1,2,NEW,NEW,,,,,,,,
,,,,,,,,,,,,,,,,TestWords/ZO_RAI_FU.wav,,60fe09fcc19f506114925fdc,2021-07-26_15h03.48.123,Agingstudy,2020.2.10,MacIntel,60,,,,,B,,,,,,,,,,,,,,,1,0,0.7887,0,13,13,13,1,2,NEW,SIMILAR,,,,,,,,
,,,,,,,,,,,,,,,,TestWords/RAY_PA_TI.wav,,60fe09fcc19f506114925fdc,2021-07-26_15h03.48.123,Agingstudy,2020.2.10,MacIntel,60,,,,,B,,,,,,,,,,,,,,,1,1,0.4254,0,14,14,14,1,1,OLD,OLD,,,,,,,,
,,,,,,,,,,,,,,,,TestWords/FI_GU_CHA.wav,,60fe09fcc19f506114925fdc,2021-07-26_15h03.48.123,Agingstudy,2020.2.10,MacIntel,60,,,,,B,,,,,,,,,,,,,,,2,1,0.4785,0,15,15,15,1,2,NEW,NEW,,,,,,,,
,,,,,,,,,,,,,,,,TestWords/MO_DAY_PU.wav,,60fe09fcc19f506114925fdc,2021-07-26_15h03.48.123,Agingstudy,2020.2.10,MacIntel,60,,,,,B,,,,,,,,,,,,,,,1,0,0.552,0,16,16,16,1,2,NEW,SIMILAR,,,,,,,,
,,,,,,,,,,,,,,,,TestWords/GI_SA_TAI.wav,,60fe09fcc19f506114925fdc,2021-07-26_15h03.48.123,Agingstudy,2020.2.10,MacIntel,60,,,,,B,,,,,,,,,,,,,,,2,1,1.0606,0,17,17,17,1,2,NEW,SIMILAR,,,,,,,,
,,,,,,,,,,,,,,,,TestWords/FU_RAI_ZO.wav,,60fe09fcc19f506114925fdc,2021-07-26_15h03.48.123,Agingstudy,2020.2.10,MacIntel,60,,,,,B,,,,,,,,,,,,,,,1,0,0.9836,0,18,18,18,1,2,NEW,SIMILAR,,,,,,,,
,,,,,,,,,,,,,,,,TestWords/DAI_RU_CHI.wav,,60fe09fcc19f506114925fdc,2021-07-26_15h03.48.123,Agingstudy,2020.2.10,MacIntel,60,,,,,B,,,,,,,,,,,,,,,1,1,0.4447,0,19,19,19,1,1,OLD,OLD,,,,,,,,
,,,,,,,,,,,,,,,,TestWords/KO_SU_FAI.wav,,60fe09fcc19f506114925fdc,2021-07-26_15h03.48.123,Agingstudy,2020.2.10,MacIntel,60,,,,,B,,,,,,,,,,,,,,,2,1,1.6394,0,20,20,20,1,2,NEW,NEW,,,,,,,,
,,,,,,,,,,,,,,,,TestWords/GA_MU_ZI.wav,,60fe09fcc19f506114925fdc,2021-07-26_15h03.48.123,Agingstudy,2020.2.10,MacIntel,60,,,,,B,,,,,,,,,,,,,,,2,0,1.4103,0,21,21,21,1,1,OLD,OLD,,,,,,,,
,,,,,,,,,,,,,,,,TestWords/RAY_PA_TI.wav,,60fe09fcc19f506114925fdc,2021-07-26_15h03.48.123,Agingstudy,2020.2.10,MacIntel,60,,,,,B,,,,,,,,,,,,,,,1,1,0.726,0,22,22,22,1,1,OLD,OLD,,,,,,,,
,,,,,,,,,,,,,,,,TestWords/PU_DAY_MO.wav,,60fe09fcc19f506114925fdc,2021-07-26_15h03.48.123,Agingstudy,2020.2.10,MacIntel,60,,,,,B,,,,,,,,,,,,,,,2,1,1.3932,0,23,23,23,1,2,NEW,SIMILAR,,,,,,,,
,,,,,,,,,,,,,,,,TestWords/GI_TAI_SA.wav,,60fe09fcc19f506114925fdc,2021-07-26_15h03.48.123,Agingstudy,2020.2.10,MacIntel,60,,,,,B,,,,,,,,,,,,,,,1,0,1.9015,0,24,24,24,1,2,NEW,SIMILAR,,,,,,,,
,,,,,,,,,,,,,,,,TestWords/KO_SU_FAI.wav,,60fe09fcc19f506114925fdc,2021-07-26_15h03.48.123,Agingstudy,2020.2.10,MacIntel,60,,,,,B,,,,,,,,,,,,,,,2,0,2.0683,0,25,25,25,1,1,OLD,OLD,,,,,,,,
,,,,,,,,,,,,,,,,TestWords/FU_ZO_RAI.wav,,60fe09fcc19f506114925fdc,2021-07-26_15h03.48.123,Agingstudy,2020.2.10,MacIntel,60,,,,,B,,,,,,,,,,,,,,,2,1,2.4877,0,26,26,26,1,2,NEW,SIMILAR,,,,,,,,
,,,,,,,,,,,,,,,,TestWords/DAI_RU_CHI.wav,,60fe09fcc19f506114925fdc,2021-07-26_15h03.48.123,Agingstudy,2020.2.10,MacIntel,60,,,,,B,,,,,,,,,,,,,,,1,1,0.3289,0,27,27,27,1,1,OLD,OLD,,,,,,,,
,,,,,,,,,,,,,,,,TestWords/RAY_PA_TI.wav,,60fe09fcc19f506114925fdc,2021-07-26_15h03.48.123,Agingstudy,2020.2.10,MacIntel,60,,,,,B,,,,,,,,,,,,,,,1,1,0.1911,0,28,28,28,1,1,OLD,OLD,,,,,,,,
,,,,,,,,,,,,,,,,TestWords/GA_MU_ZI.wav,,60fe09fcc19f506114925fdc,2021-07-26_15h03.48.123,Agingstudy,2020.2.10,MacIntel,60,,,,,B,,,,,,,,,,,,,,,1,1,0.2792,0,29,29,29,1,1,OLD,OLD,,,,,,,,
,,,,,,,,,,,,,,,,TestWords/WAI_VU_NA.wav,,60fe09fcc19f506114925fdc,2021-07-26_15h03.48.123,Agingstudy,2020.2.10,MacIntel,60,,,,,B,,,,,,,,,,,,,,,2,1,0.3036,0,30,30,30,1,2,NEW,NEW,,,,,,,,
,,,,,,,,,,,,,,,,TestWords/SA_TAI_GI.wav,,60fe09fcc19f506114925fdc,2021-07-26_15h03.48.123,Agingstudy,2020.2.10,MacIntel,60,,,,,B,,,,,,,,,,,,,,,2,1,0.6513,0,31,31,31,1,2,NEW,SIMILAR,,,,,,,,
,,,,,,,,,,,,,,,,TestWords/PU_MO_DAY.wav,,60fe09fcc19f506114925fdc,2021-07-26_15h03.48.123,Agingstudy,2020.2.10,MacIntel,60,,,,,B,,,,,,,,,,,,,,,1,0,0.9426,0,32,32,32,1,2,NEW,SIMILAR,,,,,,,,
,,,,,,,,,,,,,,,,TestWords/KO_SU_FAI.wav,,60fe09fcc19f506114925fdc,2021-07-26_15h03.48.123,Agingstudy,2020.2.10,MacIntel,60,,,,,B,,,,,,,,,,,,,,,2,0,0.3051,0,33,33,33,1,1,OLD,OLD,,,,,,,,
,,,,,,,,,,,,,,,,TestWords/RAI_FU_ZO.wav,,60fe09fcc19f506114925fdc,2021-07-26_15h03.48.123,Agingstudy,2020.2.10,MacIntel,60,,,,,B,,,,,,,,,,,,,,,1,0,0.4877,0,34,34,34,1,2,NEW,SIMILAR,,,,,,,,
,,,,,,,,,,,,,,,,TestWords/KAI_LAY_TA.wav,,60fe09fcc19f506114925fdc,2021-07-26_15h03.48.123,Agingstudy,2020.2.10,MacIntel,60,,,,,B,,,,,,,,,,,,,,,2,1,0.2884,0,35,35,35,1,2,NEW,NEW,,,,,,,,
,,,,,,,,,,,,,,,,TestWords/RAY_PA_TI.wav,,60fe09fcc19f506114925fdc,2021-07-26_15h03.48.123,Agingstudy,2020.2.10,MacIntel,60,,,,,B,,,,,,,,,,,,,,,1,1,1.804,0,36,36,36,1,1,OLD,OLD,,,,,,,,
,,,,,,,,,,,,,,,,TestWords/WAI_NA_VU.wav,,60fe09fcc19f506114925fdc,2021-07-26_15h03.48.123,Agingstudy,2020.2.10,MacIntel,60,,,,,B,,,,,,,,,,,,,,,2,1,1.14,0,37,37,37,1,2,NEW,SIMILAR,,,,,,,,
,,,,,,,,,,,,,,,,TestWords/GA_MU_ZI.wav,,60fe09fcc19f506114925fdc,2021-07-26_15h03.48.123,Agingstudy,2020.2.10,MacIntel,60,,,,,B,,,,,,,,,,,,,,,1,1,1.169,0,38,38,38,1,1,OLD,OLD,,,,,,,,
,,,,,,,,,,,,,,,,TestWords/MO_PU_DAY.wav,,60fe09fcc19f506114925fdc,2021-07-26_15h03.48.123,Agingstudy,2020.2.10,MacIntel,60,,,,,B,,,,,,,,,,,,,,,2,1,0.7745,0,39,39,39,1,2,NEW,SIMILAR,,,,,,,,
,,,,,,,,,,,,,,,,TestWords/DAI_RU_CHI.wav,,60fe09fcc19f506114925fdc,2021-07-26_15h03.48.123,Agingstudy,2020.2.10,MacIntel,60,,,,,B,,,,,,,,,,,,,,,2,0,0.9057,0,40,40,40,1,1,OLD,OLD,,,,,,,,
,,,,,,,,,,,,,,,,TestWords/SA_GI_TAI.wav,,60fe09fcc19f506114925fdc,2021-07-26_15h03.48.123,Agingstudy,2020.2.10,MacIntel,60,,,,,B,,,,,,,,,,,,,,,2,1,0.5844,0,41,41,41,1,2,NEW,SIMILAR,,,,,,,,
,,,,,,,,,,,,,,,,TestWords/KO_SU_FAI.wav,,60fe09fcc19f506114925fdc,2021-07-26_15h03.48.123,Agingstudy,2020.2.10,MacIntel,60,,,,,B,,,,,,,,,,,,,,,1,1,0.7447,0,42,42,42,1,1,OLD,OLD,,,,,,,,
,,,,,,,,,,,,,,,,TestWords/ZO_FU_RAI.wav,,60fe09fcc19f506114925fdc,2021-07-26_15h03.48.123,Agingstudy,2020.2.10,MacIntel,60,,,,,B,,,,,,,,,,,,,,,1,0,0.6091,0,43,43,43,1,2,NEW,SIMILAR,,,,,,,,
,,,,,,,,,,,,,,,,TestWords/KAI_LAY_TA.wav,,60fe09fcc19f506114925fdc,2021-07-26_15h03.48.123,Agingstudy,2020.2.10,MacIntel,60,,,,,B,,,,,,,,,,,,,,,2,0,0.5992,0,44,44,44,1,1,OLD,OLD,,,,,,,,
,,,,,,,,,,,,,,,,TestWords/RAY_PA_TI.wav,,60fe09fcc19f506114925fdc,2021-07-26_15h03.48.123,Agingstudy,2020.2.10,MacIntel,60,,,,,B,,,,,,,,,,,,,,,2,0,0.7699,0,45,45,45,1,1,OLD,OLD,,,,,,,,
,,,,,,,,,,,,,,,,TestWords/DAI_RU_CHI.wav,,60fe09fcc19f506114925fdc,2021-07-26_15h03.48.123,Agingstudy,2020.2.10,MacIntel,60,,,,,B,,,,,,,,,,,,,,,1,1,0.5054,0,46,46,46,1,1,OLD,OLD,,,,,,,,
,,,,,,,,,,,,,,,,TestWords/VU_NA_WAI.wav,,60fe09fcc19f506114925fdc,2021-07-26_15h03.48.123,Agingstudy,2020.2.10,MacIntel,60,,,,,B,,,,,,,,,,,,,,,2,1,0.3618,0,47,47,47,1,2,NEW,SIMILAR,,,,,,,,
,,,,,,,,,,,,,,,,TestWords/TAI_GI_SA.wav,,60fe09fcc19f506114925fdc,2021-07-26_15h03.48.123,Agingstudy,2020.2.10,MacIntel,60,,,,,B,,,,,,,,,,,,,,,2,1,1.2433,0,48,48,48,1,2,NEW,SIMILAR,,,,,,,,
,,,,,,,,,,,,,,,,TestWords/GA_MU_ZI.wav,,60fe09fcc19f506114925fdc,2021-07-26_15h03.48.123,Agingstudy,2020.2.10,MacIntel,60,,,,,B,,,,,,,,,,,,,,,2,0,0.9497,0,49,49,49,1,1,OLD,OLD,,,,,,,,
,,,,,,,,,,,,,,,,TestWords/KO_SU_FAI.wav,,60fe09fcc19f506114925fdc,2021-07-26_15h03.48.123,Agingstudy,2020.2.10,MacIntel,60,,,,,B,,,,,,,,,,,,,,,1,1,0.926,0,50,50,50,1,1,OLD,OLD,,,,,,,,
,,,,,,,,,,,,,,,,TestWords/KAI_LAY_TA.wav,,60fe09fcc19f506114925fdc,2021-07-26_15h03.48.123,Agingstudy,2020.2.10,MacIntel,60,,,,,B,,,,,,,,,,,,,,,1,1,1.2538,0,51,51,51,1,1,OLD,OLD,,,,,,,,
,,,,,,,,,,,,,,,,TestWords/HA_SI_JAI.wav,,60fe09fcc19f506114925fdc,2021-07-26_15h03.48.123,Agingstudy,2020.2.10,MacIntel,60,,,,,B,,,,,,,,,,,,,,,2,1,1.1377,0,52,52,52,1,2,NEW,NEW,,,,,,,,
,,,,,,,,,,,,,,,,TestWords/RAY_PA_TI.wav,,60fe09fcc19f506114925fdc,2021-07-26_15h03.48.123,Agingstudy,2020.2.10,MacIntel,60,,,,,B,,,,,,,,,,,,,,,1,1,2.1684,0,53,53,53,1,1,OLD,OLD,,,,,,,,
,,,,,,,,,,,,,,,,TestWords/VU_WAI_NA.wav,,60fe09fcc19f506114925fdc,2021-07-26_15h03.48.123,Agingstudy,2020.2.10,MacIntel,60,,,,,B,,,,,,,,,,,,,,,2,1,2.6366,0,54,54,54,1,2,NEW,SIMILAR,,,,,,,,
,,,,,,,,,,,,,,,,TestWords/DAI_RU_CHI.wav,,60fe09fcc19f506114925fdc,2021-07-26_15h03.48.123,Agingstudy,2020.2.10,MacIntel,60,,,,,B,,,,,,,,,,,,,,,1,1,0.8839,0,55,55,55,1,1,OLD,OLD,,,,,,,,
,,,,,,,,,,,,,,,,TestWords/GA_MU_ZI.wav,,60fe09fcc19f506114925fdc,2021-07-26_15h03.48.123,Agingstudy,2020.2.10,MacIntel,60,,,,,B,,,,,,,,,,,,,,,1,1,0.8688,0,56,56,56,1,1,OLD,OLD,,,,,,,,
,,,,,,,,,,,,,,,,TestWords/KAI_LAY_TA.wav,,60fe09fcc19f506114925fdc,2021-07-26_15h03.48.123,Agingstudy,2020.2.10,MacIntel,60,,,,,B,,,,,,,,,,,,,,,1,1,0.8022,0,57,57,57,1,1,OLD,OLD,,,,,,,,
,,,,,,,,,,,,,,,,TestWords/NU_CHAY_SO.wav,,60fe09fcc19f506114925fdc,2021-07-26_15h03.48.123,Agingstudy,2020.2.10,MacIntel,60,,,,,B,,,,,,,,,,,,,,,2,1,0.4226,0,58,58,58,1,2,NEW,NEW,,,,,,,,
,,,,,,,,,,,,,,,,TestWords/KO_SU_FAI.wav,,60fe09fcc19f506114925fdc,2021-07-26_15h03.48.123,Agingstudy,2020.2.10,MacIntel,60,,,,,B,,,,,,,,,,,,,,,1,1,1.2201,0,59,59,59,1,1,OLD,OLD,,,,,,,,
,,,,,,,,,,,,,,,,TestWords/RAY_PA_TI.wav,,60fe09fcc19f506114925fdc,2021-07-26_15h03.48.123,Agingstudy,2020.2.10,MacIntel,60,,,,,B,,,,,,,,,,,,,,,1,1,0.7029,0,60,60,60,1,1,OLD,OLD,,,,,,,,
,,,,,,,,,,,,,,,,TestWords/BA_KAY_LI.wav,,60fe09fcc19f506114925fdc,2021-07-26_15h03.48.123,Agingstudy,2020.2.10,MacIntel,60,,,,,B,,,,,,,,,,,,,,,2,1,0.0697,0,61,61,61,1,2,NEW,NEW,,,,,,,,
,,,,,,,,,,,,,,,,TestWords/KAI_LAY_TA.wav,,60fe09fcc19f506114925fdc,2021-07-26_15h03.48.123,Agingstudy,2020.2.10,MacIntel,60,,,,,B,,,,,,,,,,,,,,,1,1,2.0207,0,62,62,62,1,1,OLD,OLD,,,,,,,,
,,,,,,,,,,,,,,,,TestWords/NA_VU_WAI.wav,,60fe09fcc19f506114925fdc,2021-07-26_15h03.48.123,Agingstudy,2020.2.10,MacIntel,60,,,,,B,,,,,,,,,,,,,,,2,1,3.1182,0,63,63,63,1,2,NEW,SIMILAR,,,,,,,,
,,,,,,,,,,,,,,,,TestWords/GA_MU_ZI.wav,,60fe09fcc19f506114925fdc,2021-07-26_15h03.48.123,Agingstudy,2020.2.10,MacIntel,60,,,,,B,,,,,,,,,,,,,,,1,1,0.4526,0,64,64,64,1,1,OLD,OLD,,,,,,,,
,,,,,,,,,,,,,,,,TestWords/KO_SU_FAI.wav,,60fe09fcc19f506114925fdc,2021-07-26_15h03.48.123,Agingstudy,2020.2.10,MacIntel,60,,,,,B,,,,,,,,,,,,,,,1,1,0.8061,0,65,65,65,1,1,OLD,OLD,,,,,,,,
,,,,,,,,,,,,,,,,TestWords/DAI_RU_CHI.wav,,60fe09fcc19f506114925fdc,2021-07-26_15h03.48.123,Agingstudy,2020.2.10,MacIntel,60,,,,,B,,,,,,,,,,,,,,,1,1,0.819,0,66,66,66,1,1,OLD,OLD,,,,,,,,
,,,,,,,,,,,,,,,,TestWords/GU_CHAI_PI.wav,,60fe09fcc19f506114925fdc,2021-07-26_15h03.48.123,Agingstudy,2020.2.10,MacIntel,60,,,,,B,,,,,,,,,,,,,,,2,1,0.8585,0,67,67,67,1,2,NEW,NEW,,,,,,,,
,,,,,,,,,,,,,,,,TestWords/RAY_PA_TI.wav,,60fe09fcc19f506114925fdc,2021-07-26_15h03.48.123,Agingstudy,2020.2.10,MacIntel,60,,,,,B,,,,,,,,,,,,,,,1,1,1.107,0,68,68,68,1,1,OLD,OLD,,,,,,,,
,,,,,,,,,,,,,,,,TestWords/KAY_LI_BA.wav,,60fe09fcc19f506114925fdc,2021-07-26_15h03.48.123,Agingstudy,2020.2.10,MacIntel,60,,,,,B,,,,,,,,,,,,,,,2,1,0.4286,0,69,69,69,1,2,NEW,SIMILAR,,,,,,,,
,,,,,,,,,,,,,,,,TestWords/KAI_LAY_TA.wav,,60fe09fcc19f506114925fdc,2021-07-26_15h03.48.123,Agingstudy,2020.2.10,MacIntel,60,,,,,B,,,,,,,,,,,,,,,1,1,0.5724,0,70,70,70,1,1,OLD,OLD,,,,,,,,
,,,,,,,,,,,,,,,,TestWords/KO_SU_FAI.wav,,60fe09fcc19f506114925fdc,2021-07-26_15h03.48.123,Agingstudy,2020.2.10,MacIntel,60,,,,,B,,,,,,,,,,,,,,,1,1,0.8889,0,71,71,71,1,1,OLD,OLD,,,,,,,,
,,,,,,,,,,,,,,,,TestWords/DAI_RU_CHI.wav,,60fe09fcc19f506114925fdc,2021-07-26_15h03.48.123,Agingstudy,2020.2.10,MacIntel,60,,,,,B,,,,,,,,,,,,,,,1,1,0.6587,0,72,72,72,1,1,OLD,OLD,,,,,,,,
,,,,,,,,,,,,,,,,TestWords/NA_WAI_VU.wav,,60fe09fcc19f506114925fdc,2021-07-26_15h03.48.123,Agingstudy,2020.2.10,MacIntel,60,,,,,B,,,,,,,,,,,,,,,1,0,0.738,0,73,73,73,1,2,NEW,SIMILAR,,,,,,,,
,,,,,,,,,,,,,,,,TestWords/GA_MU_ZI.wav,,60fe09fcc19f506114925fdc,2021-07-26_15h03.48.123,Agingstudy,2020.2.10,MacIntel,60,,,,,B,,,,,,,,,,,,,,,1,1,1.003,0,74,74,74,1,1,OLD,OLD,,,,,,,,
,,,,,,,,,,,,,,,,TestWords/KAY_BA_LI.wav,,60fe09fcc19f506114925fdc,2021-07-26_15h03.48.123,Agingstudy,2020.2.10,MacIntel,60,,,,,B,,,,,,,,,,,,,,,2,1,1.076,0,75,75,75,1,2,NEW,SIMILAR,,,,,,,,
,,,,,,,,,,,,,,,,TestWords/WAI_RO_JU.wav,,60fe09fcc19f506114925fdc,2021-07-26_15h03.48.123,Agingstudy,2020.2.10,MacIntel,60,,,,,B,,,,,,,,,,,,,,,2,1,0.3918,0,76,76,76,1,2,NEW,NEW,,,,,,,,
,,,,,,,,,,,,,,,,TestWords/RAY_PA_TI.wav,,60fe09fcc19f506114925fdc,2021-07-26_15h03.48.123,Agingstudy,2020.2.10,MacIntel,60,,,,,B,,,,,,,,,,,,,,,1,1,0.4428,0,77,77,77,1,1,OLD,OLD,,,,,,,,
,,,,,,,,,,,,,,,,TestWords/KAI_LAY_TA.wav,,60fe09fcc19f506114925fdc,2021-07-26_15h03.48.123,Agingstudy,2020.2.10,MacIntel,60,,,,,B,,,,,,,,,,,,,,,1,1,2.4337,0,78,78,78,1,1,OLD,OLD,,,,,,,,
,,,,,,,,,,,,,,,,TestWords/HI_NAY_VA.wav,,60fe09fcc19f506114925fdc,2021-07-26_15h03.48.123,Agingstudy,2020.2.10,MacIntel,60,,,,,B,,,,,,,,,,,,,,,1,0,4.7418,0,79,79,79,1,2,NEW,NEW,,,,,,,,
,,,,,,,,,,,,,,,,TestWords/KO_SU_FAI.wav,,60fe09fcc19f506114925fdc,2021-07-26_15h03.48.123,Agingstudy,2020.2.10,MacIntel,60,,,,,B,,,,,,,,,,,,,,,2,0,0.7626,0,80,80,80,1,1,OLD,OLD,,,,,,,,
,,,,,,,,,,,,,,,,TestWords/GA_MU_ZI.wav,,60fe09fcc19f506114925fdc,2021-07-26_15h03.48.123,Agingstudy,2020.2.10,MacIntel,60,,,,,B,,,,,,,,,,,,,,,1,1,0.8113,0,81,81,81,1,1,OLD,OLD,,,,,,,,
,,,,,,,,,,,,,,,,TestWords/KAI_LAY_TA.wav,,60fe09fcc19f506114925fdc,2021-07-26_15h03.48.123,Agingstudy,2020.2.10,MacIntel,60,,,,,B,,,,,,,,,,,,,,,1,1,0.9437,0,82,82,82,1,1,OLD,OLD,,,,,,,,
,,,,,,,,,,,,,,,,TestWords/LI_BA_KAY.wav,,60fe09fcc19f506114925fdc,2021-07-26_15h03.48.123,Agingstudy,2020.2.10,MacIntel,60,,,,,B,,,,,,,,,,,,,,,2,1,1.4434,0,83,83,83,1,2,NEW,SIMILAR,,,,,,,,
,,,,,,,,,,,,,,,,TestWords/DAI_RU_CHI.wav,,60fe09fcc19f506114925fdc,2021-07-26_15h03.48.123,Agingstudy,2020.2.10,MacIntel,60,,,,,B,,,,,,,,,,,,,,,1,1,0.2351,0,84,84,84,1,1,OLD,OLD,,,,,,,,
,,,,,,,,,,,,,,,,TestWords/KO_SU_FAI.wav,,60fe09fcc19f506114925fdc,2021-07-26_15h03.48.123,Agingstudy,2020.2.10,MacIntel,60,,,,,B,,,,,,,,,,,,,,,1,1,0.2691,0,85,85,85,1,1,OLD,OLD,,,,,,,,
,,,,,,,,,,,,,,,,TestWords/NO_WA_BAY.wav,,60fe09fcc19f506114925fdc,2021-07-26_15h03.48.123,Agingstudy,2020.2.10,MacIntel,60,,,,,B,,,,,,,,,,,,,,,2,1,0.0782,0,86,86,86,1,2,NEW,NEW,,,,,,,,
,,,,,,,,,,,,,,,,TestWords/KAI_LAY_TA.wav,,60fe09fcc19f506114925fdc,2021-07-26_15h03.48.123,Agingstudy,2020.2.10,MacIntel,60,,,,,B,,,,,,,,,,,,,,,1,1,0.552,0,87,87,87,1,1,OLD,OLD,,,,,,,,
,,,,,,,,,,,,,,,,TestWords/GA_MU_ZI.wav,,60fe09fcc19f506114925fdc,2021-07-26_15h03.48.123,Agingstudy,2020.2.10,MacIntel,60,,,,,B,,,,,,,,,,,,,,,1,1,0.4915,0,88,88,88,1,1,OLD,OLD,,,,,,,,
,,,,,,,,,,,,,,,,TestWords/DAI_RU_CHI.wav,,60fe09fcc19f506114925fdc,2021-07-26_15h03.48.123,Agingstudy,2020.2.10,MacIntel,60,,,,,B,,,,,,,,,,,,,,,1,1,0.256,0,89,89,89,1,1,OLD,OLD,,,,,,,,
,,,,,,,,,,,,,,,,TestWords/LA_ZAY_CHAI.wav,,60fe09fcc19f506114925fdc,2021-07-26_15h03.48.123,Agingstudy,2020.2.10,MacIntel,60,,,,,B,,,,,,,,,,,,,,,2,1,0.2847,0,90,90,90,1,2,NEW,NEW,,,,,,,,
,,,,,,,,,,,,,,,,TestWords/BA_LI_KAY.wav,,60fe09fcc19f506114925fdc,2021-07-26_15h03.48.123,Agingstudy,2020.2.10,MacIntel,60,,,,,B,,,,,,,,,,,,,,,2,1,1.311,0,91,91,91,1,2,NEW,SIMILAR,,,,,,,,
,,,,,,,,,,,,,,,,TestWords/PAI_LU_WA.wav,,60fe09fcc19f506114925fdc,2021-07-26_15h03.48.123,Agingstudy,2020.2.10,MacIntel,60,,,,,B,,,,,,,,,,,,,,,1,0,0.2725,0,92,92,92,1,2,NEW,NEW,,,,,,,,
,,,,,,,,,,,,,,,,TestWords/KO_SU_FAI.wav,,60fe09fcc19f506114925fdc,2021-07-26_15h03.48.123,Agingstudy,2020.2.10,MacIntel,60,,,,,B,,,,,,,,,,,,,,,1,1,3.0363,0,93,93,93,1,1,OLD,OLD,,,,,,,,
,,,,,,,,,,,,,,,,TestWords/KAI_LAY_TA.wav,,60fe09fcc19f506114925fdc,2021-07-26_15h03.48.123,Agingstudy,2020.2.10,MacIntel,60,,,,,B,,,,,,,,,,,,,,,1,1,0.1925,0,94,94,94,1,1,OLD,OLD,,,,,,,,
,,,,,,,,,,,,,,,,TestWords/VAI_HO_LA.wav,,60fe09fcc19f506114925fdc,2021-07-26_15h03.48.123,Agingstudy,2020.2.10,MacIntel,60,,,,,B,,,,,,,,,,,,,,,2,1,0.4025,0,95,95,95,1,2,NEW,NEW,,,,,,,,
,,,,,,,,,,,,,,,,TestWords/GA_MU_ZI.wav,,60fe09fcc19f506114925fdc,2021-07-26_15h03.48.123,Agingstudy,2020.2.10,MacIntel,60,,,,,B,,,,,,,,,,,,,,,1,1,0.4559,0,96,96,96,1,1,OLD,OLD,,,,,,,,
,,,,,,,,,,,,,,,,TestWords/LI_KAY_BA.wav,,60fe09fcc19f506114925fdc,2021-07-26_15h03.48.123,Agingstudy,2020.2.10,MacIntel,60,,,,,B,,,,,,,,,,,,,,,2,1,0.7849,0,97,97,97,1,2,NEW,SIMILAR,,,,,,,,
,,,,,,,,,,,,,,,,TestWords/KAI_LAY_TA.wav,,60fe09fcc19f506114925fdc,2021-07-26_15h03.48.123,Agingstudy,2020.2.10,MacIntel,60,,,,,B,,,,,,,,,,,,,,,1,1,0.3359,0,98,98,98,1,1,OLD,OLD,,,,,,,,
,,,,,,,,,,,,,,,,TestWords/SI_VAI_CHU.wav,,60fe09fcc19f506114925fdc,2021-07-26_15h03.48.123,Agingstudy,2020.2.10,MacIntel,60,,,,,B,,,,,,,,,,,,,,,2,1,0.9775,0,99,99,99,1,2,NEW,NEW,,,,,,,,
,,,,,,,,,,,,,,,,,,60fe09fcc19f506114925fdc,2021-07-26_15h03.48.123,Agingstudy,2020.2.10,MacIntel,60,,,,,,,,,,,,,,,,,,,,,,,,,,,,,,,0,0,0,0,1,,,
,,,,,,,,,,,,,,,,,,60fe09fcc19f506114925fdc,2021-07-26_15h03.48.123,Agingstudy,2020.2.10,MacIntel,60,,,,,,,,,,,,,,,,,,,,,,,,,,,,,,,,,,,,return,15.4551,
