Welcome0Continue.keys,Welcome0Continue.rt,SoundCheckBegin.keys,SoundCheckBegin.rt,SoundCheckEndKey.keys,SoundCheckEndKey.rt,HeadphoneContinueKey.keys,HeadphoneContinueKey.rt,CheckResp.keys,CheckResp.corr,CheckResp.rt,HeadphoneLoop.thisRepN,HeadphoneLoop.thisTrialN,HeadphoneLoop.thisN,HeadphoneLoop.thisIndex,HeadphoneLoop.ran,File,Correct,participant,date,expName,psychopyVersion,OS,frameRate,RepeatAgainKey.keys,RepeatAgainKey.rt,RepeatAgainLoop.thisRepN,RepeatAgainLoop.thisTrialN,RepeatAgainLoop.thisN,RepeatAgainLoop.thisIndex,RepeatAgainLoop.ran,Headphone_retest.thisRepN,Headphone_retest.thisTrialN,Headphone_retest.thisN,Headphone_retest.thisIndex,Headphone_retest.ran,ContinueKey8.keys,ContinueKey8.rt,MSTWelcomeContKey.keys,MSTWelcomeContKey.rt,Condition,MSTTrainIntroKey.keys,MSTTrainIntroKey.rt,MSTTrainKeys.keys,MSTTrainKeys.corr,MSTTrainKeys.rt,MSTTrainLoop.thisRepN,MSTTrainLoop.thisTrialN,MSTTrainLoop.thisN,MSTTrainLoop.thisIndex,MSTTrainLoop.ran,SoundFile,Type,MSTTestBeginKey.keys,MSTTestBeginKey.rt,MST_resp.keys,MST_resp.corr,MST_resp.rt,MSTPlayLoop.thisRepN,MSTPlayLoop.thisTrialN,MSTPlayLoop.thisN,MSTPlayLoop.thisIndex,MSTPlayLoop.ran,WordCorrect,Correct_type,WordType,MSTLoop.thisRepN,MSTLoop.thisTrialN,MSTLoop.thisN,MSTLoop.thisIndex,MSTLoop.ran,EndAllKey.keys,EndAllKey.rt,FeedbackResp.text
space,9.3274,space,5.5539,space,7.6433,space,14.5927,2,0,5.3735,0,0,0,1,1,Headphone/t1_2.wav,1,60feccd7d60422ba8f1aad8e,2021-08-06_00h25.04.583,Agingstudy,2020.2.10,MacIntel,60,,,,,,,,,,,,,,,,,,,,,,,,,,,,,,,,,,,,,,,,,,,,,,,,,,
,,,,,,,,3,0,1.5399,0,1,1,3,1,Headphone/t2_2.wav,2,60feccd7d60422ba8f1aad8e,2021-08-06_00h25.04.583,Agingstudy,2020.2.10,MacIntel,60,,,,,,,,,,,,,,,,,,,,,,,,,,,,,,,,,,,,,,,,,,,,,,,,,,
,,,,,,,,1,0,3.9941,0,2,2,5,1,Headphone/t3_2.wav,3,60feccd7d60422ba8f1aad8e,2021-08-06_00h25.04.583,Agingstudy,2020.2.10,MacIntel,60,,,,,,,,,,,,,,,,,,,,,,,,,,,,,,,,,,,,,,,,,,,,,,,,,,
,,,,,,,,3,0,0.7272,0,3,3,0,1,Headphone/t1_1.wav,1,60feccd7d60422ba8f1aad8e,2021-08-06_00h25.04.583,Agingstudy,2020.2.10,MacIntel,60,,,,,,,,,,,,,,,,,,,,,,,,,,,,,,,,,,,,,,,,,,,,,,,,,,
,,,,,,,,1,0,2.5081,0,4,4,2,1,Headphone/t2_1.wav,2,60feccd7d60422ba8f1aad8e,2021-08-06_00h25.04.583,Agingstudy,2020.2.10,MacIntel,60,,,,,,,,,,,,,,,,,,,,,,,,,,,,,,,,,,,,,,,,,,,,,,,,,,
,,,,,,,,2,0,5.595,0,5,5,4,1,Headphone/t3_1.wav,3,60feccd7d60422ba8f1aad8e,2021-08-06_00h25.04.583,Agingstudy,2020.2.10,MacIntel,60,,,,,,,,,,,,,,,,,,,,,,,,,,,,,,,,,,,,,,,,,,,,,,,,,,
,,,,,,,,,,,,,,,,,,60feccd7d60422ba8f1aad8e,2021-08-06_00h25.04.583,Agingstudy,2020.2.10,MacIntel,60,space,35.2148,0,0,0,0,1,,,,,,,,,,,,,,,,,,,,,,,,,,,,,,,,,,,,,,,,,,,
,,,,,,,,,,,,,,,,,,60feccd7d60422ba8f1aad8e,2021-08-06_00h25.04.583,Agingstudy,2020.2.10,MacIntel,60,,,,,,,,0,0,0,0,1,,,,,,,,,,,,,,,,,,,,,,,,,,,,,,,,,,,,,,
,,,,,,,,1,1,1.8222,0,0,0,1,1,Headphone/t1_2.wav,1,60feccd7d60422ba8f1aad8e,2021-08-06_00h25.04.583,Agingstudy,2020.2.10,MacIntel,60,,,,,,,,,,,,,,,,,,,,,,,,,,,,,,,,,,,,,,,,,,,,,,,,,,
,,,,,,,,2,1,1.2065,0,1,1,2,1,Headphone/t2_1.wav,2,60feccd7d60422ba8f1aad8e,2021-08-06_00h25.04.583,Agingstudy,2020.2.10,MacIntel,60,,,,,,,,,,,,,,,,,,,,,,,,,,,,,,,,,,,,,,,,,,,,,,,,,,
,,,,,,,,3,1,1.1215,0,2,2,4,1,Headphone/t3_1.wav,3,60feccd7d60422ba8f1aad8e,2021-08-06_00h25.04.583,Agingstudy,2020.2.10,MacIntel,60,,,,,,,,,,,,,,,,,,,,,,,,,,,,,,,,,,,,,,,,,,,,,,,,,,
,,,,,,,,1,1,0.6874,0,3,3,0,1,Headphone/t1_1.wav,1,60feccd7d60422ba8f1aad8e,2021-08-06_00h25.04.583,Agingstudy,2020.2.10,MacIntel,60,,,,,,,,,,,,,,,,,,,,,,,,,,,,,,,,,,,,,,,,,,,,,,,,,,
,,,,,,,,3,1,1.0208,0,4,4,5,1,Headphone/t3_2.wav,3,60feccd7d60422ba8f1aad8e,2021-08-06_00h25.04.583,Agingstudy,2020.2.10,MacIntel,60,,,,,,,,,,,,,,,,,,,,,,,,,,,,,,,,,,,,,,,,,,,,,,,,,,
,,,,,,,,2,1,0.5928,0,5,5,3,1,Headphone/t2_2.wav,2,60feccd7d60422ba8f1aad8e,2021-08-06_00h25.04.583,Agingstudy,2020.2.10,MacIntel,60,,,,,,,,,,,,,,,,,,,,,,,,,,,,,,,,,,,,,,,,,,,,,,,,,,
,,,,,,,,,,,,,,,,,2,60feccd7d60422ba8f1aad8e,2021-08-06_00h25.04.583,Agingstudy,2020.2.10,MacIntel,60,,,,,,,,,,,,,space,18.5493,space,5.5079,1,space,4.0006,2,1,4.3352,0,0,0,0,1,Training/FO_YI_LAY.wav,NEW,,,,,,,,,,,,,,,,,,,,,
,,,,,,,,,,,,,,,,,1,60feccd7d60422ba8f1aad8e,2021-08-06_00h25.04.583,Agingstudy,2020.2.10,MacIntel,60,,,,,,,,,,,,,,,,,,,,1,1,6.1197,0,1,1,1,1,Training/FO_YI_LAY.wav,OLD,,,,,,,,,,,,,,,,,,,,,
,,,,,,,,,,,,,,,,,2,60feccd7d60422ba8f1aad8e,2021-08-06_00h25.04.583,Agingstudy,2020.2.10,MacIntel,60,,,,,,,,,,,,,,,,,,,,2,1,1.2167,0,2,2,2,1,Training/YO_BU_JAY.wav,NEW,,,,,,,,,,,,,,,,,,,,,
,,,,,,,,,,,,,,,,,2,60feccd7d60422ba8f1aad8e,2021-08-06_00h25.04.583,Agingstudy,2020.2.10,MacIntel,60,,,,,,,,,,,,,,,,,,,,2,1,0.818,0,3,3,3,1,Training/JAY_YO_BU.wav,SIMILAR,,,,,,,,,,,,,,,,,,,,,
,,,,,,,,,,,,,,,,,1,60feccd7d60422ba8f1aad8e,2021-08-06_00h25.04.583,Agingstudy,2020.2.10,MacIntel,60,,,,,,,,,,,,,,,,,,,,1,1,0.787,0,4,4,4,1,Training/FO_YI_LAY.wav,OLD,,,,,,,,,,,,,,,,,,,,,
,,,,,,,,,,,,,,,,TestWords/SI_VAI_CHU.wav,,60feccd7d60422ba8f1aad8e,2021-08-06_00h25.04.583,Agingstudy,2020.2.10,MacIntel,60,,,,,,,,,,,,,,,,,F,,,,,,,,,,,,,space,2.9764,2,1,1.9043,0,0,0,0,1,2,NEW,NEW,,,,,,,,
,,,,,,,,,,,,,,,,TestWords/HO_NAY_VA.wav,,60feccd7d60422ba8f1aad8e,2021-08-06_00h25.04.583,Agingstudy,2020.2.10,MacIntel,60,,,,,,,,,,,,,,,,,F,,,,,,,,,,,,,,,2,1,0.7523,0,1,1,1,1,2,NEW,NEW,,,,,,,,
,,,,,,,,,,,,,,,,TestWords/KAI_LAY_TA.wav,,60feccd7d60422ba8f1aad8e,2021-08-06_00h25.04.583,Agingstudy,2020.2.10,MacIntel,60,,,,,,,,,,,,,,,,,F,,,,,,,,,,,,,,,2,1,0.6024,0,2,2,2,1,2,NEW,NEW,,,,,,,,
,,,,,,,,,,,,,,,,TestWords/PAI_LU_WA.wav,,60feccd7d60422ba8f1aad8e,2021-08-06_00h25.04.583,Agingstudy,2020.2.10,MacIntel,60,,,,,,,,,,,,,,,,,F,,,,,,,,,,,,,,,2,1,1.054,0,3,3,3,1,2,NEW,NEW,,,,,,,,
,,,,,,,,,,,,,,,,TestWords/WAI_VU_NA.wav,,60feccd7d60422ba8f1aad8e,2021-08-06_00h25.04.583,Agingstudy,2020.2.10,MacIntel,60,,,,,,,,,,,,,,,,,F,,,,,,,,,,,,,,,2,1,0.5213,0,4,4,4,1,2,NEW,NEW,,,,,,,,
,,,,,,,,,,,,,,,,TestWords/VAI_HO_LA.wav,,60feccd7d60422ba8f1aad8e,2021-08-06_00h25.04.583,Agingstudy,2020.2.10,MacIntel,60,,,,,,,,,,,,,,,,,F,,,,,,,,,,,,,,,2,1,2.3175,0,5,5,5,1,2,NEW,NEW,,,,,,,,
,,,,,,,,,,,,,,,,TestWords/GU_CHAI_PI.wav,,60feccd7d60422ba8f1aad8e,2021-08-06_00h25.04.583,Agingstudy,2020.2.10,MacIntel,60,,,,,,,,,,,,,,,,,F,,,,,,,,,,,,,,,2,1,0.6693,0,6,6,6,1,2,NEW,NEW,,,,,,,,
,,,,,,,,,,,,,,,,TestWords/KO_SU_FAI.wav,,60feccd7d60422ba8f1aad8e,2021-08-06_00h25.04.583,Agingstudy,2020.2.10,MacIntel,60,,,,,,,,,,,,,,,,,F,,,,,,,,,,,,,,,2,1,0.6131,0,7,7,7,1,2,NEW,NEW,,,,,,,,
,,,,,,,,,,,,,,,,TestWords/KAI_LAY_TA.wav,,60feccd7d60422ba8f1aad8e,2021-08-06_00h25.04.583,Agingstudy,2020.2.10,MacIntel,60,,,,,,,,,,,,,,,,,F,,,,,,,,,,,,,,,1,1,0.927,0,8,8,8,1,1,OLD,OLD,,,,,,,,
,,,,,,,,,,,,,,,,TestWords/BA_KAY_LI.wav,,60feccd7d60422ba8f1aad8e,2021-08-06_00h25.04.583,Agingstudy,2020.2.10,MacIntel,60,,,,,,,,,,,,,,,,,F,,,,,,,,,,,,,,,1,0,0.4076,0,9,9,9,1,2,NEW,NEW,,,,,,,,
,,,,,,,,,,,,,,,,TestWords/DAI_RU_CHI.wav,,60feccd7d60422ba8f1aad8e,2021-08-06_00h25.04.583,Agingstudy,2020.2.10,MacIntel,60,,,,,,,,,,,,,,,,,F,,,,,,,,,,,,,,,2,1,1.2173,0,10,10,10,1,2,NEW,NEW,,,,,,,,
,,,,,,,,,,,,,,,,TestWords/WAI_NA_VU.wav,,60feccd7d60422ba8f1aad8e,2021-08-06_00h25.04.583,Agingstudy,2020.2.10,MacIntel,60,,,,,,,,,,,,,,,,,F,,,,,,,,,,,,,,,2,1,1.6383,0,11,11,11,1,2,NEW,SIMILAR,,,,,,,,
,,,,,,,,,,,,,,,,TestWords/DA_CHU_VAI.wav,,60feccd7d60422ba8f1aad8e,2021-08-06_00h25.04.583,Agingstudy,2020.2.10,MacIntel,60,,,,,,,,,,,,,,,,,F,,,,,,,,,,,,,,,2,1,0.7356,0,12,12,12,1,2,NEW,NEW,,,,,,,,
,,,,,,,,,,,,,,,,TestWords/KAI_LAY_TA.wav,,60feccd7d60422ba8f1aad8e,2021-08-06_00h25.04.583,Agingstudy,2020.2.10,MacIntel,60,,,,,,,,,,,,,,,,,F,,,,,,,,,,,,,,,1,1,0.495,0,13,13,13,1,1,OLD,OLD,,,,,,,,
,,,,,,,,,,,,,,,,TestWords/KO_SU_FAI.wav,,60feccd7d60422ba8f1aad8e,2021-08-06_00h25.04.583,Agingstudy,2020.2.10,MacIntel,60,,,,,,,,,,,,,,,,,F,,,,,,,,,,,,,,,1,1,1.5251,0,14,14,14,1,1,OLD,OLD,,,,,,,,
,,,,,,,,,,,,,,,,TestWords/VU_NA_WAI.wav,,60feccd7d60422ba8f1aad8e,2021-08-06_00h25.04.583,Agingstudy,2020.2.10,MacIntel,60,,,,,,,,,,,,,,,,,F,,,,,,,,,,,,,,,2,1,1.0511,0,15,15,15,1,2,NEW,SIMILAR,,,,,,,,
,,,,,,,,,,,,,,,,TestWords/DAI_RU_CHI.wav,,60feccd7d60422ba8f1aad8e,2021-08-06_00h25.04.583,Agingstudy,2020.2.10,MacIntel,60,,,,,,,,,,,,,,,,,F,,,,,,,,,,,,,,,1,1,0.64,0,16,16,16,1,1,OLD,OLD,,,,,,,,
,,,,,,,,,,,,,,,,TestWords/KAY_LI_BA.wav,,60feccd7d60422ba8f1aad8e,2021-08-06_00h25.04.583,Agingstudy,2020.2.10,MacIntel,60,,,,,,,,,,,,,,,,,F,,,,,,,,,,,,,,,2,1,0.7068,0,17,17,17,1,2,NEW,SIMILAR,,,,,,,,
,,,,,,,,,,,,,,,,TestWords/RAY_PA_TI.wav,,60feccd7d60422ba8f1aad8e,2021-08-06_00h25.04.583,Agingstudy,2020.2.10,MacIntel,60,,,,,,,,,,,,,,,,,F,,,,,,,,,,,,,,,2,1,1.4531,0,18,18,18,1,2,NEW,NEW,,,,,,,,
,,,,,,,,,,,,,,,,TestWords/KAI_LAY_TA.wav,,60feccd7d60422ba8f1aad8e,2021-08-06_00h25.04.583,Agingstudy,2020.2.10,MacIntel,60,,,,,,,,,,,,,,,,,F,,,,,,,,,,,,,,,1,1,0.5204,0,19,19,19,1,1,OLD,OLD,,,,,,,,
,,,,,,,,,,,,,,,,TestWords/VU_WAI_NA.wav,,60feccd7d60422ba8f1aad8e,2021-08-06_00h25.04.583,Agingstudy,2020.2.10,MacIntel,60,,,,,,,,,,,,,,,,,F,,,,,,,,,,,,,,,2,1,1.6246,0,20,20,20,1,2,NEW,SIMILAR,,,,,,,,
,,,,,,,,,,,,,,,,TestWords/KO_SU_FAI.wav,,60feccd7d60422ba8f1aad8e,2021-08-06_00h25.04.583,Agingstudy,2020.2.10,MacIntel,60,,,,,,,,,,,,,,,,,F,,,,,,,,,,,,,,,1,1,1.9341,0,21,21,21,1,1,OLD,OLD,,,,,,,,
,,,,,,,,,,,,,,,,TestWords/HI_NAY_VA.wav,,60feccd7d60422ba8f1aad8e,2021-08-06_00h25.04.583,Agingstudy,2020.2.10,MacIntel,60,,,,,,,,,,,,,,,,,F,,,,,,,,,,,,,,,1,0,0.6024,0,22,22,22,1,2,NEW,NEW,,,,,,,,
,,,,,,,,,,,,,,,,TestWords/KAI_LAY_TA.wav,,60feccd7d60422ba8f1aad8e,2021-08-06_00h25.04.583,Agingstudy,2020.2.10,MacIntel,60,,,,,,,,,,,,,,,,,F,,,,,,,,,,,,,,,1,1,0.4856,0,23,23,23,1,1,OLD,OLD,,,,,,,,
,,,,,,,,,,,,,,,,TestWords/RAY_PA_TI.wav,,60feccd7d60422ba8f1aad8e,2021-08-06_00h25.04.583,Agingstudy,2020.2.10,MacIntel,60,,,,,,,,,,,,,,,,,F,,,,,,,,,,,,,,,1,1,1.2593,0,24,24,24,1,1,OLD,OLD,,,,,,,,
,,,,,,,,,,,,,,,,TestWords/DAI_RU_CHI.wav,,60feccd7d60422ba8f1aad8e,2021-08-06_00h25.04.583,Agingstudy,2020.2.10,MacIntel,60,,,,,,,,,,,,,,,,,F,,,,,,,,,,,,,,,1,1,0.3828,0,25,25,25,1,1,OLD,OLD,,,,,,,,
,,,,,,,,,,,,,,,,TestWords/NA_VU_WAI.wav,,60feccd7d60422ba8f1aad8e,2021-08-06_00h25.04.583,Agingstudy,2020.2.10,MacIntel,60,,,,,,,,,,,,,,,,,F,,,,,,,,,,,,,,,1,0,0.9808,0,26,26,26,1,2,NEW,SIMILAR,,,,,,,,
,,,,,,,,,,,,,,,,TestWords/KAY_BA_LI.wav,,60feccd7d60422ba8f1aad8e,2021-08-06_00h25.04.583,Agingstudy,2020.2.10,MacIntel,60,,,,,,,,,,,,,,,,,F,,,,,,,,,,,,,,,1,0,1.8394,0,27,27,27,1,2,NEW,SIMILAR,,,,,,,,
,,,,,,,,,,,,,,,,TestWords/KO_SU_FAI.wav,,60feccd7d60422ba8f1aad8e,2021-08-06_00h25.04.583,Agingstudy,2020.2.10,MacIntel,60,,,,,,,,,,,,,,,,,F,,,,,,,,,,,,,,,2,0,0.8094,0,28,28,28,1,1,OLD,OLD,,,,,,,,
,,,,,,,,,,,,,,,,TestWords/KAI_LAY_TA.wav,,60feccd7d60422ba8f1aad8e,2021-08-06_00h25.04.583,Agingstudy,2020.2.10,MacIntel,60,,,,,,,,,,,,,,,,,F,,,,,,,,,,,,,,,1,1,0.4639,0,29,29,29,1,1,OLD,OLD,,,,,,,,
,,,,,,,,,,,,,,,,TestWords/RAY_PA_TI.wav,,60feccd7d60422ba8f1aad8e,2021-08-06_00h25.04.583,Agingstudy,2020.2.10,MacIntel,60,,,,,,,,,,,,,,,,,F,,,,,,,,,,,,,,,1,1,0.6822,0,30,30,30,1,1,OLD,OLD,,,,,,,,
,,,,,,,,,,,,,,,,TestWords/NU_CHAY_SO.wav,,60feccd7d60422ba8f1aad8e,2021-08-06_00h25.04.583,Agingstudy,2020.2.10,MacIntel,60,,,,,,,,,,,,,,,,,F,,,,,,,,,,,,,,,2,1,0.5853,0,31,31,31,1,2,NEW,NEW,,,,,,,,
,,,,,,,,,,,,,,,,TestWords/DAI_RU_CHI.wav,,60feccd7d60422ba8f1aad8e,2021-08-06_00h25.04.583,Agingstudy,2020.2.10,MacIntel,60,,,,,,,,,,,,,,,,,F,,,,,,,,,,,,,,,1,1,0.5122,0,32,32,32,1,1,OLD,OLD,,,,,,,,
,,,,,,,,,,,,,,,,TestWords/NA_WAI_VU.wav,,60feccd7d60422ba8f1aad8e,2021-08-06_00h25.04.583,Agingstudy,2020.2.10,MacIntel,60,,,,,,,,,,,,,,,,,F,,,,,,,,,,,,,,,2,1,0.7241,0,33,33,33,1,2,NEW,SIMILAR,,,,,,,,
,,,,,,,,,,,,,,,,TestWords/GA_MU_ZI.wav,,60feccd7d60422ba8f1aad8e,2021-08-06_00h25.04.583,Agingstudy,2020.2.10,MacIntel,60,,,,,,,,,,,,,,,,,F,,,,,,,,,,,,,,,2,1,0.7471,0,34,34,34,1,2,NEW,NEW,,,,,,,,
,,,,,,,,,,,,,,,,TestWords/KAI_LAY_TA.wav,,60feccd7d60422ba8f1aad8e,2021-08-06_00h25.04.583,Agingstudy,2020.2.10,MacIntel,60,,,,,,,,,,,,,,,,,F,,,,,,,,,,,,,,,1,1,0.5469,0,35,35,35,1,1,OLD,OLD,,,,,,,,
,,,,,,,,,,,,,,,,TestWords/LI_BA_KAY.wav,,60feccd7d60422ba8f1aad8e,2021-08-06_00h25.04.583,Agingstudy,2020.2.10,MacIntel,60,,,,,,,,,,,,,,,,,F,,,,,,,,,,,,,,,2,1,1.3283,0,36,36,36,1,2,NEW,SIMILAR,,,,,,,,
,,,,,,,,,,,,,,,,TestWords/KO_SU_FAI.wav,,60feccd7d60422ba8f1aad8e,2021-08-06_00h25.04.583,Agingstudy,2020.2.10,MacIntel,60,,,,,,,,,,,,,,,,,F,,,,,,,,,,,,,,,1,1,0.9755,0,37,37,37,1,1,OLD,OLD,,,,,,,,
,,,,,,,,,,,,,,,,TestWords/RAY_PA_TI.wav,,60feccd7d60422ba8f1aad8e,2021-08-06_00h25.04.583,Agingstudy,2020.2.10,MacIntel,60,,,,,,,,,,,,,,,,,F,,,,,,,,,,,,,,,1,1,0.5148,0,38,38,38,1,1,OLD,OLD,,,,,,,,
,,,,,,,,,,,,,,,,TestWords/TAI_SA_GI.wav,,60feccd7d60422ba8f1aad8e,2021-08-06_00h25.04.583,Agingstudy,2020.2.10,MacIntel,60,,,,,,,,,,,,,,,,,F,,,,,,,,,,,,,,,1,0,4.1013,0,39,39,39,1,2,NEW,NEW,,,,,,,,
,,,,,,,,,,,,,,,,TestWords/DAI_RU_CHI.wav,,60feccd7d60422ba8f1aad8e,2021-08-06_00h25.04.583,Agingstudy,2020.2.10,MacIntel,60,,,,,,,,,,,,,,,,,F,,,,,,,,,,,,,,,1,1,0.3,0,40,40,40,1,1,OLD,OLD,,,,,,,,
,,,,,,,,,,,,,,,,TestWords/GA_MU_ZI.wav,,60feccd7d60422ba8f1aad8e,2021-08-06_00h25.04.583,Agingstudy,2020.2.10,MacIntel,60,,,,,,,,,,,,,,,,,F,,,,,,,,,,,,,,,1,1,0.6679,0,41,41,41,1,1,OLD,OLD,,,,,,,,
,,,,,,,,,,,,,,,,TestWords/KAI_LAY_TA.wav,,60feccd7d60422ba8f1aad8e,2021-08-06_00h25.04.583,Agingstudy,2020.2.10,MacIntel,60,,,,,,,,,,,,,,,,,F,,,,,,,,,,,,,,,1,1,0.6086,0,42,42,42,1,1,OLD,OLD,,,,,,,,
,,,,,,,,,,,,,,,,TestWords/GI_SA_TAI.wav,,60feccd7d60422ba8f1aad8e,2021-08-06_00h25.04.583,Agingstudy,2020.2.10,MacIntel,60,,,,,,,,,,,,,,,,,F,,,,,,,,,,,,,,,2,1,0.8933,0,43,43,43,1,2,NEW,SIMILAR,,,,,,,,
,,,,,,,,,,,,,,,,TestWords/BA_LI_KAY.wav,,60feccd7d60422ba8f1aad8e,2021-08-06_00h25.04.583,Agingstudy,2020.2.10,MacIntel,60,,,,,,,,,,,,,,,,,F,,,,,,,,,,,,,,,2,1,1.0194,0,44,44,44,1,2,NEW,SIMILAR,,,,,,,,
,,,,,,,,,,,,,,,,TestWords/KO_SU_FAI.wav,,60feccd7d60422ba8f1aad8e,2021-08-06_00h25.04.583,Agingstudy,2020.2.10,MacIntel,60,,,,,,,,,,,,,,,,,F,,,,,,,,,,,,,,,1,1,1.1238,0,45,45,45,1,1,OLD,OLD,,,,,,,,
,,,,,,,,,,,,,,,,TestWords/RAY_PA_TI.wav,,60feccd7d60422ba8f1aad8e,2021-08-06_00h25.04.583,Agingstudy,2020.2.10,MacIntel,60,,,,,,,,,,,,,,,,,F,,,,,,,,,,,,,,,1,1,0.642,0,46,46,46,1,1,OLD,OLD,,,,,,,,
,,,,,,,,,,,,,,,,TestWords/GA_MU_ZI.wav,,60feccd7d60422ba8f1aad8e,2021-08-06_00h25.04.583,Agingstudy,2020.2.10,MacIntel,60,,,,,,,,,,,,,,,,,F,,,,,,,,,,,,,,,1,1,0.6091,0,47,47,47,1,1,OLD,OLD,,,,,,,,
,,,,,,,,,,,,,,,,TestWords/LU_HAI_BO.wav,,60feccd7d60422ba8f1aad8e,2021-08-06_00h25.04.583,Agingstudy,2020.2.10,MacIntel,60,,,,,,,,,,,,,,,,,F,,,,,,,,,,,,,,,2,1,0.6449,0,48,48,48,1,2,NEW,NEW,,,,,,,,
,,,,,,,,,,,,,,,,TestWords/KAI_LAY_TA.wav,,60feccd7d60422ba8f1aad8e,2021-08-06_00h25.04.583,Agingstudy,2020.2.10,MacIntel,60,,,,,,,,,,,,,,,,,F,,,,,,,,,,,,,,,1,1,0.6411,0,49,49,49,1,1,OLD,OLD,,,,,,,,
,,,,,,,,,,,,,,,,TestWords/DAI_RU_CHI.wav,,60feccd7d60422ba8f1aad8e,2021-08-06_00h25.04.583,Agingstudy,2020.2.10,MacIntel,60,,,,,,,,,,,,,,,,,F,,,,,,,,,,,,,,,1,1,0.3266,0,50,50,50,1,1,OLD,OLD,,,,,,,,
,,,,,,,,,,,,,,,,TestWords/GI_TAI_SA.wav,,60feccd7d60422ba8f1aad8e,2021-08-06_00h25.04.583,Agingstudy,2020.2.10,MacIntel,60,,,,,,,,,,,,,,,,,F,,,,,,,,,,,,,,,1,0,0.4836,0,51,51,51,1,2,NEW,SIMILAR,,,,,,,,
,,,,,,,,,,,,,,,,TestWords/LI_KAY_BA.wav,,60feccd7d60422ba8f1aad8e,2021-08-06_00h25.04.583,Agingstudy,2020.2.10,MacIntel,60,,,,,,,,,,,,,,,,,F,,,,,,,,,,,,,,,2,1,1.8066,0,52,52,52,1,2,NEW,SIMILAR,,,,,,,,
,,,,,,,,,,,,,,,,TestWords/RAY_PA_TI.wav,,60feccd7d60422ba8f1aad8e,2021-08-06_00h25.04.583,Agingstudy,2020.2.10,MacIntel,60,,,,,,,,,,,,,,,,,F,,,,,,,,,,,,,,,1,1,0.6429,0,53,53,53,1,1,OLD,OLD,,,,,,,,
,,,,,,,,,,,,,,,,TestWords/KO_SU_FAI.wav,,60feccd7d60422ba8f1aad8e,2021-08-06_00h25.04.583,Agingstudy,2020.2.10,MacIntel,60,,,,,,,,,,,,,,,,,F,,,,,,,,,,,,,,,1,1,1.3143,0,54,54,54,1,1,OLD,OLD,,,,,,,,
,,,,,,,,,,,,,,,,TestWords/DAY_PU_MO.wav,,60feccd7d60422ba8f1aad8e,2021-08-06_00h25.04.583,Agingstudy,2020.2.10,MacIntel,60,,,,,,,,,,,,,,,,,F,,,,,,,,,,,,,,,2,1,0.4145,0,55,55,55,1,2,NEW,NEW,,,,,,,,
,,,,,,,,,,,,,,,,TestWords/KAI_LAY_TA.wav,,60feccd7d60422ba8f1aad8e,2021-08-06_00h25.04.583,Agingstudy,2020.2.10,MacIntel,60,,,,,,,,,,,,,,,,,F,,,,,,,,,,,,,,,1,1,1.2491,0,56,56,56,1,1,OLD,OLD,,,,,,,,
,,,,,,,,,,,,,,,,TestWords/GA_MU_ZI.wav,,60feccd7d60422ba8f1aad8e,2021-08-06_00h25.04.583,Agingstudy,2020.2.10,MacIntel,60,,,,,,,,,,,,,,,,,F,,,,,,,,,,,,,,,1,1,0.6958,0,57,57,57,1,1,OLD,OLD,,,,,,,,
,,,,,,,,,,,,,,,,TestWords/CHU_LA_PAY.wav,,60feccd7d60422ba8f1aad8e,2021-08-06_00h25.04.583,Agingstudy,2020.2.10,MacIntel,60,,,,,,,,,,,,,,,,,F,,,,,,,,,,,,,,,2,1,0.6851,0,58,58,58,1,2,NEW,NEW,,,,,,,,
,,,,,,,,,,,,,,,,TestWords/DAI_RU_CHI.wav,,60feccd7d60422ba8f1aad8e,2021-08-06_00h25.04.583,Agingstudy,2020.2.10,MacIntel,60,,,,,,,,,,,,,,,,,F,,,,,,,,,,,,,,,1,1,0.658,0,59,59,59,1,1,OLD,OLD,,,,,,,,
,,,,,,,,,,,,,,,,TestWords/SA_TAI_GI.wav,,60feccd7d60422ba8f1aad8e,2021-08-06_00h25.04.583,Agingstudy,2020.2.10,MacIntel,60,,,,,,,,,,,,,,,,,F,,,,,,,,,,,,,,,1,0,2.0614,0,60,60,60,1,2,NEW,SIMILAR,,,,,,,,
,,,,,,,,,,,,,,,,TestWords/RAY_PA_TI.wav,,60feccd7d60422ba8f1aad8e,2021-08-06_00h25.04.583,Agingstudy,2020.2.10,MacIntel,60,,,,,,,,,,,,,,,,,F,,,,,,,,,,,,,,,1,1,0.687,0,61,61,61,1,1,OLD,OLD,,,,,,,,
,,,,,,,,,,,,,,,,TestWords/KAI_LAY_TA.wav,,60feccd7d60422ba8f1aad8e,2021-08-06_00h25.04.583,Agingstudy,2020.2.10,MacIntel,60,,,,,,,,,,,,,,,,,F,,,,,,,,,,,,,,,1,1,0.7271,0,62,62,62,1,1,OLD,OLD,,,,,,,,
,,,,,,,,,,,,,,,,TestWords/FU_RAI_ZO.wav,,60feccd7d60422ba8f1aad8e,2021-08-06_00h25.04.583,Agingstudy,2020.2.10,MacIntel,60,,,,,,,,,,,,,,,,,F,,,,,,,,,,,,,,,2,1,0.6506,0,63,63,63,1,2,NEW,NEW,,,,,,,,
,,,,,,,,,,,,,,,,TestWords/KO_SU_FAI.wav,,60feccd7d60422ba8f1aad8e,2021-08-06_00h25.04.583,Agingstudy,2020.2.10,MacIntel,60,,,,,,,,,,,,,,,,,F,,,,,,,,,,,,,,,1,1,0.8186,0,64,64,64,1,1,OLD,OLD,,,,,,,,
,,,,,,,,,,,,,,,,TestWords/GA_MU_ZI.wav,,60feccd7d60422ba8f1aad8e,2021-08-06_00h25.04.583,Agingstudy,2020.2.10,MacIntel,60,,,,,,,,,,,,,,,,,F,,,,,,,,,,,,,,,1,1,0.4402,0,65,65,65,1,1,OLD,OLD,,,,,,,,
,,,,,,,,,,,,,,,,TestWords/DAY_MO_PU.wav,,60feccd7d60422ba8f1aad8e,2021-08-06_00h25.04.583,Agingstudy,2020.2.10,MacIntel,60,,,,,,,,,,,,,,,,,F,,,,,,,,,,,,,,,2,1,0.8278,0,66,66,66,1,2,NEW,SIMILAR,,,,,,,,
,,,,,,,,,,,,,,,,TestWords/DAI_RU_CHI.wav,,60feccd7d60422ba8f1aad8e,2021-08-06_00h25.04.583,Agingstudy,2020.2.10,MacIntel,60,,,,,,,,,,,,,,,,,F,,,,,,,,,,,,,,,1,1,0.4025,0,67,67,67,1,1,OLD,OLD,,,,,,,,
,,,,,,,,,,,,,,,,TestWords/FI_GU_CHA.wav,,60feccd7d60422ba8f1aad8e,2021-08-06_00h25.04.583,Agingstudy,2020.2.10,MacIntel,60,,,,,,,,,,,,,,,,,F,,,,,,,,,,,,,,,2,1,0.7701,0,68,68,68,1,2,NEW,NEW,,,,,,,,
,,,,,,,,,,,,,,,,TestWords/GA_MU_ZI.wav,,60feccd7d60422ba8f1aad8e,2021-08-06_00h25.04.583,Agingstudy,2020.2.10,MacIntel,60,,,,,,,,,,,,,,,,,F,,,,,,,,,,,,,,,1,1,0.2243,0,69,69,69,1,1,OLD,OLD,,,,,,,,
,,,,,,,,,,,,,,,,TestWords/RAY_PA_TI.wav,,60feccd7d60422ba8f1aad8e,2021-08-06_00h25.04.583,Agingstudy,2020.2.10,MacIntel,60,,,,,,,,,,,,,,,,,F,,,,,,,,,,,,,,,1,1,0.3283,0,70,70,70,1,1,OLD,OLD,,,,,,,,
,,,,,,,,,,,,,,,,TestWords/SA_GI_TAI.wav,,60feccd7d60422ba8f1aad8e,2021-08-06_00h25.04.583,Agingstudy,2020.2.10,MacIntel,60,,,,,,,,,,,,,,,,,F,,,,,,,,,,,,,,,1,0,1.4846,0,71,71,71,1,2,NEW,SIMILAR,,,,,,,,
,,,,,,,,,,,,,,,,TestWords/MO_DAY_PU.wav,,60feccd7d60422ba8f1aad8e,2021-08-06_00h25.04.583,Agingstudy,2020.2.10,MacIntel,60,,,,,,,,,,,,,,,,,F,,,,,,,,,,,,,,,1,0,0.5381,0,72,72,72,1,2,NEW,SIMILAR,,,,,,,,
,,,,,,,,,,,,,,,,TestWords/KO_SU_FAI.wav,,60feccd7d60422ba8f1aad8e,2021-08-06_00h25.04.583,Agingstudy,2020.2.10,MacIntel,60,,,,,,,,,,,,,,,,,F,,,,,,,,,,,,,,,1,1,0.5238,0,73,73,73,1,1,OLD,OLD,,,,,,,,
,,,,,,,,,,,,,,,,TestWords/RAI_ZO_FU.wav,,60feccd7d60422ba8f1aad8e,2021-08-06_00h25.04.583,Agingstudy,2020.2.10,MacIntel,60,,,,,,,,,,,,,,,,,F,,,,,,,,,,,,,,,2,1,1.1131,0,74,74,74,1,2,NEW,SIMILAR,,,,,,,,
,,,,,,,,,,,,,,,,TestWords/GA_MU_ZI.wav,,60feccd7d60422ba8f1aad8e,2021-08-06_00h25.04.583,Agingstudy,2020.2.10,MacIntel,60,,,,,,,,,,,,,,,,,F,,,,,,,,,,,,,,,1,1,0.384,0,75,75,75,1,1,OLD,OLD,,,,,,,,
,,,,,,,,,,,,,,,,TestWords/DAI_RU_CHI.wav,,60feccd7d60422ba8f1aad8e,2021-08-06_00h25.04.583,Agingstudy,2020.2.10,MacIntel,60,,,,,,,,,,,,,,,,,F,,,,,,,,,,,,,,,1,1,1.136,0,76,76,76,1,1,OLD,OLD,,,,,,,,
,,,,,,,,,,,,,,,,TestWords/TAI_GI_SA.wav,,60feccd7d60422ba8f1aad8e,2021-08-06_00h25.04.583,Agingstudy,2020.2.10,MacIntel,60,,,,,,,,,,,,,,,,,F,,,,,,,,,,,,,,,1,0,1.073,0,77,77,77,1,2,NEW,SIMILAR,,,,,,,,
,,,,,,,,,,,,,,,,TestWords/RAY_PA_TI.wav,,60feccd7d60422ba8f1aad8e,2021-08-06_00h25.04.583,Agingstudy,2020.2.10,MacIntel,60,,,,,,,,,,,,,,,,,F,,,,,,,,,,,,,,,1,1,0.4599,0,78,78,78,1,1,OLD,OLD,,,,,,,,
,,,,,,,,,,,,,,,,TestWords/PU_DAY_MO.wav,,60feccd7d60422ba8f1aad8e,2021-08-06_00h25.04.583,Agingstudy,2020.2.10,MacIntel,60,,,,,,,,,,,,,,,,,F,,,,,,,,,,,,,,,2,1,0.5225,0,79,79,79,1,2,NEW,SIMILAR,,,,,,,,
,,,,,,,,,,,,,,,,TestWords/KO_SU_FAI.wav,,60feccd7d60422ba8f1aad8e,2021-08-06_00h25.04.583,Agingstudy,2020.2.10,MacIntel,60,,,,,,,,,,,,,,,,,F,,,,,,,,,,,,,,,2,0,0.47,0,80,80,80,1,1,OLD,OLD,,,,,,,,
,,,,,,,,,,,,,,,,TestWords/ZO_RAI_FU.wav,,60feccd7d60422ba8f1aad8e,2021-08-06_00h25.04.583,Agingstudy,2020.2.10,MacIntel,60,,,,,,,,,,,,,,,,,F,,,,,,,,,,,,,,,2,1,0.3918,0,81,81,81,1,2,NEW,SIMILAR,,,,,,,,
,,,,,,,,,,,,,,,,TestWords/GA_MU_ZI.wav,,60feccd7d60422ba8f1aad8e,2021-08-06_00h25.04.583,Agingstudy,2020.2.10,MacIntel,60,,,,,,,,,,,,,,,,,F,,,,,,,,,,,,,,,1,1,0.2913,0,82,82,82,1,1,OLD,OLD,,,,,,,,
,,,,,,,,,,,,,,,,TestWords/RAY_PA_TI.wav,,60feccd7d60422ba8f1aad8e,2021-08-06_00h25.04.583,Agingstudy,2020.2.10,MacIntel,60,,,,,,,,,,,,,,,,,F,,,,,,,,,,,,,,,1,1,0.3327,0,83,83,83,1,1,OLD,OLD,,,,,,,,
,,,,,,,,,,,,,,,,TestWords/DAI_RU_CHI.wav,,60feccd7d60422ba8f1aad8e,2021-08-06_00h25.04.583,Agingstudy,2020.2.10,MacIntel,60,,,,,,,,,,,,,,,,,F,,,,,,,,,,,,,,,1,1,0.3561,0,84,84,84,1,1,OLD,OLD,,,,,,,,
,,,,,,,,,,,,,,,,TestWords/GA_MU_ZI.wav,,60feccd7d60422ba8f1aad8e,2021-08-06_00h25.04.583,Agingstudy,2020.2.10,MacIntel,60,,,,,,,,,,,,,,,,,F,,,,,,,,,,,,,,,1,1,0.3097,0,85,85,85,1,1,OLD,OLD,,,,,,,,
,,,,,,,,,,,,,,,,TestWords/NO_WA_BAY.wav,,60feccd7d60422ba8f1aad8e,2021-08-06_00h25.04.583,Agingstudy,2020.2.10,MacIntel,60,,,,,,,,,,,,,,,,,F,,,,,,,,,,,,,,,2,1,0.1746,0,86,86,86,1,2,NEW,NEW,,,,,,,,
,,,,,,,,,,,,,,,,TestWords/FU_ZO_RAI.wav,,60feccd7d60422ba8f1aad8e,2021-08-06_00h25.04.583,Agingstudy,2020.2.10,MacIntel,60,,,,,,,,,,,,,,,,,F,,,,,,,,,,,,,,,2,1,0.4739,0,87,87,87,1,2,NEW,SIMILAR,,,,,,,,
,,,,,,,,,,,,,,,,TestWords/KO_SU_FAI.wav,,60feccd7d60422ba8f1aad8e,2021-08-06_00h25.04.583,Agingstudy,2020.2.10,MacIntel,60,,,,,,,,,,,,,,,,,F,,,,,,,,,,,,,,,1,1,0.5876,0,88,88,88,1,1,OLD,OLD,,,,,,,,
,,,,,,,,,,,,,,,,TestWords/PU_MO_DAY.wav,,60feccd7d60422ba8f1aad8e,2021-08-06_00h25.04.583,Agingstudy,2020.2.10,MacIntel,60,,,,,,,,,,,,,,,,,F,,,,,,,,,,,,,,,1,0,1.2762,0,89,89,89,1,2,NEW,SIMILAR,,,,,,,,
,,,,,,,,,,,,,,,,TestWords/RAY_PA_TI.wav,,60feccd7d60422ba8f1aad8e,2021-08-06_00h25.04.583,Agingstudy,2020.2.10,MacIntel,60,,,,,,,,,,,,,,,,,F,,,,,,,,,,,,,,,1,1,0.3074,0,90,90,90,1,1,OLD,OLD,,,,,,,,
,,,,,,,,,,,,,,,,TestWords/DAI_RU_CHI.wav,,60feccd7d60422ba8f1aad8e,2021-08-06_00h25.04.583,Agingstudy,2020.2.10,MacIntel,60,,,,,,,,,,,,,,,,,F,,,,,,,,,,,,,,,1,1,0.1912,0,91,91,91,1,1,OLD,OLD,,,,,,,,
,,,,,,,,,,,,,,,,TestWords/RAI_FU_ZO.wav,,60feccd7d60422ba8f1aad8e,2021-08-06_00h25.04.583,Agingstudy,2020.2.10,MacIntel,60,,,,,,,,,,,,,,,,,F,,,,,,,,,,,,,,,1,0,0.8909,0,92,92,92,1,2,NEW,SIMILAR,,,,,,,,
,,,,,,,,,,,,,,,,TestWords/GA_MU_ZI.wav,,60feccd7d60422ba8f1aad8e,2021-08-06_00h25.04.583,Agingstudy,2020.2.10,MacIntel,60,,,,,,,,,,,,,,,,,F,,,,,,,,,,,,,,,1,1,0.1889,0,93,93,93,1,1,OLD,OLD,,,,,,,,
,,,,,,,,,,,,,,,,TestWords/HA_SI_JAI.wav,,60feccd7d60422ba8f1aad8e,2021-08-06_00h25.04.583,Agingstudy,2020.2.10,MacIntel,60,,,,,,,,,,,,,,,,,F,,,,,,,,,,,,,,,2,1,0.8243,0,94,94,94,1,2,NEW,NEW,,,,,,,,
,,,,,,,,,,,,,,,,TestWords/MO_PU_DAY.wav,,60feccd7d60422ba8f1aad8e,2021-08-06_00h25.04.583,Agingstudy,2020.2.10,MacIntel,60,,,,,,,,,,,,,,,,,F,,,,,,,,,,,,,,,2,1,4.6032,0,95,95,95,1,2,NEW,SIMILAR,,,,,,,,
,,,,,,,,,,,,,,,,TestWords/LA_ZAY_CHAI.wav,,60feccd7d60422ba8f1aad8e,2021-08-06_00h25.04.583,Agingstudy,2020.2.10,MacIntel,60,,,,,,,,,,,,,,,,,F,,,,,,,,,,,,,,,2,1,0.5195,0,96,96,96,1,2,NEW,NEW,,,,,,,,
,,,,,,,,,,,,,,,,TestWords/GA_MU_ZI.wav,,60feccd7d60422ba8f1aad8e,2021-08-06_00h25.04.583,Agingstudy,2020.2.10,MacIntel,60,,,,,,,,,,,,,,,,,F,,,,,,,,,,,,,,,1,1,0.1267,0,97,97,97,1,1,OLD,OLD,,,,,,,,
,,,,,,,,,,,,,,,,TestWords/ZO_FU_RAI.wav,,60feccd7d60422ba8f1aad8e,2021-08-06_00h25.04.583,Agingstudy,2020.2.10,MacIntel,60,,,,,,,,,,,,,,,,,F,,,,,,,,,,,,,,,2,1,0.8052,0,98,98,98,1,2,NEW,SIMILAR,,,,,,,,
,,,,,,,,,,,,,,,,TestWords/WAI_RO_JU.wav,,60feccd7d60422ba8f1aad8e,2021-08-06_00h25.04.583,Agingstudy,2020.2.10,MacIntel,60,,,,,,,,,,,,,,,,,F,,,,,,,,,,,,,,,2,1,0.8716,0,99,99,99,1,2,NEW,NEW,,,,,,,,
,,,,,,,,,,,,,,,,,,60feccd7d60422ba8f1aad8e,2021-08-06_00h25.04.583,Agingstudy,2020.2.10,MacIntel,60,,,,,,,,,,,,,,,,,,,,,,,,,,,,,,,,,,,,,,,,,,,0,0,0,0,1,,,
,,,,,,,,,,,,,,,,,,60feccd7d60422ba8f1aad8e,2021-08-06_00h25.04.583,Agingstudy,2020.2.10,MacIntel,60,,,,,,,,,,,,,,,,,,,,,,,,,,,,,,,,,,,,,,,,,,,,,,,,return,19.1815,
