Welcome0Continue.keys,Welcome0Continue.rt,SoundCheckBegin.keys,SoundCheckBegin.rt,SoundCheckEndKey.keys,SoundCheckEndKey.rt,HeadphoneContinueKey.keys,HeadphoneContinueKey.rt,CheckResp.keys,CheckResp.corr,CheckResp.rt,HeadphoneLoop.thisRepN,HeadphoneLoop.thisTrialN,HeadphoneLoop.thisN,HeadphoneLoop.thisIndex,HeadphoneLoop.ran,File,Correct,participant,date,expName,psychopyVersion,OS,frameRate,ContinueKey8.keys,ContinueKey8.rt,MSTWelcomeContKey.keys,MSTWelcomeContKey.rt,Condition,MSTTrainIntroKey.keys,MSTTrainIntroKey.rt,MSTTrainKeys.keys,MSTTrainKeys.corr,MSTTrainKeys.rt,MSTTrainLoop.thisRepN,MSTTrainLoop.thisTrialN,MSTTrainLoop.thisN,MSTTrainLoop.thisIndex,MSTTrainLoop.ran,SoundFile,Type,MSTTestBeginKey.keys,MSTTestBeginKey.rt,MST_resp.keys,MST_resp.corr,MST_resp.rt,MSTPlayLoop.thisRepN,MSTPlayLoop.thisTrialN,MSTPlayLoop.thisN,MSTPlayLoop.thisIndex,MSTPlayLoop.ran,WordCorrect,Correct_type,WordType,MSTLoop.thisRepN,MSTLoop.thisTrialN,MSTLoop.thisN,MSTLoop.thisIndex,MSTLoop.ran,EndAllKey.keys,EndAllKey.rt,FeedbackResp.text
space,5.0273,space,8.3272,space,5.586,space,9.5688,3,1,3.1244,0,0,0,5,1,Headphone/t3_2.wav,3,60fe65a2471965af7430d3cf,2021-08-06_16h02.47.684,Agingstudy,2020.2.10,Win32,60,,,,,,,,,,,,,,,,,,,,,,,,,,,,,,,,,,,,,,
,,,,,,,,1,1,1.6434,0,1,1,1,1,Headphone/t1_2.wav,1,60fe65a2471965af7430d3cf,2021-08-06_16h02.47.684,Agingstudy,2020.2.10,Win32,60,,,,,,,,,,,,,,,,,,,,,,,,,,,,,,,,,,,,,,
,,,,,,,,3,1,0.3536,0,2,2,4,1,Headphone/t3_1.wav,3,60fe65a2471965af7430d3cf,2021-08-06_16h02.47.684,Agingstudy,2020.2.10,Win32,60,,,,,,,,,,,,,,,,,,,,,,,,,,,,,,,,,,,,,,
,,,,,,,,1,1,0.2621,0,3,3,0,1,Headphone/t1_1.wav,1,60fe65a2471965af7430d3cf,2021-08-06_16h02.47.684,Agingstudy,2020.2.10,Win32,60,,,,,,,,,,,,,,,,,,,,,,,,,,,,,,,,,,,,,,
,,,,,,,,2,1,0.2037,0,4,4,3,1,Headphone/t2_2.wav,2,60fe65a2471965af7430d3cf,2021-08-06_16h02.47.684,Agingstudy,2020.2.10,Win32,60,,,,,,,,,,,,,,,,,,,,,,,,,,,,,,,,,,,,,,
,,,,,,,,2,1,0.2541,0,5,5,2,1,Headphone/t2_1.wav,2,60fe65a2471965af7430d3cf,2021-08-06_16h02.47.684,Agingstudy,2020.2.10,Win32,60,,,,,,,,,,,,,,,,,,,,,,,,,,,,,,,,,,,,,,
,,,,,,,,,,,,,,,,,2,60fe65a2471965af7430d3cf,2021-08-06_16h02.47.684,Agingstudy,2020.2.10,Win32,60,space,17.6907,space,9.2357,1,space,10.3407,2,1,4.5853,0,0,0,0,1,Training/FO_YI_LAY.wav,NEW,,,,,,,,,,,,,,,,,,,,,
,,,,,,,,,,,,,,,,,1,60fe65a2471965af7430d3cf,2021-08-06_16h02.47.684,Agingstudy,2020.2.10,Win32,60,,,,,,,,1,1,1.0058,0,1,1,1,1,Training/FO_YI_LAY.wav,OLD,,,,,,,,,,,,,,,,,,,,,
,,,,,,,,,,,,,,,,,2,60fe65a2471965af7430d3cf,2021-08-06_16h02.47.684,Agingstudy,2020.2.10,Win32,60,,,,,,,,2,1,1.3976,0,2,2,2,1,Training/YO_BU_JAY.wav,NEW,,,,,,,,,,,,,,,,,,,,,
,,,,,,,,,,,,,,,,,2,60fe65a2471965af7430d3cf,2021-08-06_16h02.47.684,Agingstudy,2020.2.10,Win32,60,,,,,,,,1,0,0.5842,0,3,3,3,1,Training/JAY_YO_BU.wav,SIMILAR,,,,,,,,,,,,,,,,,,,,,
,,,,,,,,,,,,,,,,,1,60fe65a2471965af7430d3cf,2021-08-06_16h02.47.684,Agingstudy,2020.2.10,Win32,60,,,,,,,,1,1,1.4978,0,4,4,4,1,Training/FO_YI_LAY.wav,OLD,,,,,,,,,,,,,,,,,,,,,
,,,,,,,,,,,,,,,,TestWords/HA_SI_JAI.wav,,60fe65a2471965af7430d3cf,2021-08-06_16h02.47.684,Agingstudy,2020.2.10,Win32,60,,,,,C,,,,,,,,,,,,,space,6.3175,2,1,7.024,0,0,0,0,1,2,NEW,NEW,,,,,,,,
,,,,,,,,,,,,,,,,TestWords/NO_WA_BAY.wav,,60fe65a2471965af7430d3cf,2021-08-06_16h02.47.684,Agingstudy,2020.2.10,Win32,60,,,,,C,,,,,,,,,,,,,,,1,0,0.4244,0,1,1,1,1,2,NEW,NEW,,,,,,,,
,,,,,,,,,,,,,,,,TestWords/KO_SU_FAI.wav,,60fe65a2471965af7430d3cf,2021-08-06_16h02.47.684,Agingstudy,2020.2.10,Win32,60,,,,,C,,,,,,,,,,,,,,,2,1,0.6515,0,2,2,2,1,2,NEW,NEW,,,,,,,,
,,,,,,,,,,,,,,,,TestWords/TAI_SA_GI.wav,,60fe65a2471965af7430d3cf,2021-08-06_16h02.47.684,Agingstudy,2020.2.10,Win32,60,,,,,C,,,,,,,,,,,,,,,2,1,0.988,0,3,3,3,1,2,NEW,NEW,,,,,,,,
,,,,,,,,,,,,,,,,TestWords/HO_NAY_VA.wav,,60fe65a2471965af7430d3cf,2021-08-06_16h02.47.684,Agingstudy,2020.2.10,Win32,60,,,,,C,,,,,,,,,,,,,,,2,1,0.6801,0,4,4,4,1,2,NEW,NEW,,,,,,,,
,,,,,,,,,,,,,,,,TestWords/KAI_LAY_TA.wav,,60fe65a2471965af7430d3cf,2021-08-06_16h02.47.684,Agingstudy,2020.2.10,Win32,60,,,,,C,,,,,,,,,,,,,,,2,1,0.7192,0,5,5,5,1,2,NEW,NEW,,,,,,,,
,,,,,,,,,,,,,,,,TestWords/FI_GU_CHA.wav,,60fe65a2471965af7430d3cf,2021-08-06_16h02.47.684,Agingstudy,2020.2.10,Win32,60,,,,,C,,,,,,,,,,,,,,,2,1,0.5692,0,6,6,6,1,2,NEW,NEW,,,,,,,,
,,,,,,,,,,,,,,,,TestWords/GI_SA_TAI.wav,,60fe65a2471965af7430d3cf,2021-08-06_16h02.47.684,Agingstudy,2020.2.10,Win32,60,,,,,C,,,,,,,,,,,,,,,2,1,0.6678,0,7,7,7,1,2,NEW,SIMILAR,,,,,,,,
,,,,,,,,,,,,,,,,TestWords/LU_HAI_BO.wav,,60fe65a2471965af7430d3cf,2021-08-06_16h02.47.684,Agingstudy,2020.2.10,Win32,60,,,,,C,,,,,,,,,,,,,,,2,1,0.3854,0,8,8,8,1,2,NEW,NEW,,,,,,,,
,,,,,,,,,,,,,,,,TestWords/KO_SU_FAI.wav,,60fe65a2471965af7430d3cf,2021-08-06_16h02.47.684,Agingstudy,2020.2.10,Win32,60,,,,,C,,,,,,,,,,,,,,,1,1,1.9666,0,9,9,9,1,1,OLD,OLD,,,,,,,,
,,,,,,,,,,,,,,,,TestWords/DAI_RU_CHI.wav,,60fe65a2471965af7430d3cf,2021-08-06_16h02.47.684,Agingstudy,2020.2.10,Win32,60,,,,,C,,,,,,,,,,,,,,,2,1,0.2173,0,10,10,10,1,2,NEW,NEW,,,,,,,,
,,,,,,,,,,,,,,,,TestWords/CHU_LA_PAY.wav,,60fe65a2471965af7430d3cf,2021-08-06_16h02.47.684,Agingstudy,2020.2.10,Win32,60,,,,,C,,,,,,,,,,,,,,,1,0,0.4188,0,11,11,11,1,2,NEW,NEW,,,,,,,,
,,,,,,,,,,,,,,,,TestWords/KAI_LAY_TA.wav,,60fe65a2471965af7430d3cf,2021-08-06_16h02.47.684,Agingstudy,2020.2.10,Win32,60,,,,,C,,,,,,,,,,,,,,,1,1,0.6762,0,12,12,12,1,1,OLD,OLD,,,,,,,,
,,,,,,,,,,,,,,,,TestWords/GI_TAI_SA.wav,,60fe65a2471965af7430d3cf,2021-08-06_16h02.47.684,Agingstudy,2020.2.10,Win32,60,,,,,C,,,,,,,,,,,,,,,1,0,2.2445,0,13,13,13,1,2,NEW,SIMILAR,,,,,,,,
,,,,,,,,,,,,,,,,TestWords/DAY_PU_MO.wav,,60fe65a2471965af7430d3cf,2021-08-06_16h02.47.684,Agingstudy,2020.2.10,Win32,60,,,,,C,,,,,,,,,,,,,,,2,1,2.5431,0,14,14,14,1,2,NEW,NEW,,,,,,,,
,,,,,,,,,,,,,,,,TestWords/KO_SU_FAI.wav,,60fe65a2471965af7430d3cf,2021-08-06_16h02.47.684,Agingstudy,2020.2.10,Win32,60,,,,,C,,,,,,,,,,,,,,,1,1,1.0276,0,15,15,15,1,1,OLD,OLD,,,,,,,,
,,,,,,,,,,,,,,,,TestWords/SA_TAI_GI.wav,,60fe65a2471965af7430d3cf,2021-08-06_16h02.47.684,Agingstudy,2020.2.10,Win32,60,,,,,C,,,,,,,,,,,,,,,2,1,1.4058,0,16,16,16,1,2,NEW,SIMILAR,,,,,,,,
,,,,,,,,,,,,,,,,TestWords/RAY_PA_TI.wav,,60fe65a2471965af7430d3cf,2021-08-06_16h02.47.684,Agingstudy,2020.2.10,Win32,60,,,,,C,,,,,,,,,,,,,,,2,1,0.7054,0,17,17,17,1,2,NEW,NEW,,,,,,,,
,,,,,,,,,,,,,,,,TestWords/KAI_LAY_TA.wav,,60fe65a2471965af7430d3cf,2021-08-06_16h02.47.684,Agingstudy,2020.2.10,Win32,60,,,,,C,,,,,,,,,,,,,,,1,1,1.8314,0,18,18,18,1,1,OLD,OLD,,,,,,,,
,,,,,,,,,,,,,,,,TestWords/DAY_MO_PU.wav,,60fe65a2471965af7430d3cf,2021-08-06_16h02.47.684,Agingstudy,2020.2.10,Win32,60,,,,,C,,,,,,,,,,,,,,,2,1,1.3367,0,19,19,19,1,2,NEW,SIMILAR,,,,,,,,
,,,,,,,,,,,,,,,,TestWords/DAI_RU_CHI.wav,,60fe65a2471965af7430d3cf,2021-08-06_16h02.47.684,Agingstudy,2020.2.10,Win32,60,,,,,C,,,,,,,,,,,,,,,2,0,1.1184,0,20,20,20,1,1,OLD,OLD,,,,,,,,
,,,,,,,,,,,,,,,,TestWords/SA_GI_TAI.wav,,60fe65a2471965af7430d3cf,2021-08-06_16h02.47.684,Agingstudy,2020.2.10,Win32,60,,,,,C,,,,,,,,,,,,,,,2,1,1.5655,0,21,21,21,1,2,NEW,SIMILAR,,,,,,,,
,,,,,,,,,,,,,,,,TestWords/KO_SU_FAI.wav,,60fe65a2471965af7430d3cf,2021-08-06_16h02.47.684,Agingstudy,2020.2.10,Win32,60,,,,,C,,,,,,,,,,,,,,,1,1,0.9432,0,22,22,22,1,1,OLD,OLD,,,,,,,,
,,,,,,,,,,,,,,,,TestWords/KAI_LAY_TA.wav,,60fe65a2471965af7430d3cf,2021-08-06_16h02.47.684,Agingstudy,2020.2.10,Win32,60,,,,,C,,,,,,,,,,,,,,,1,1,0.2439,0,23,23,23,1,1,OLD,OLD,,,,,,,,
,,,,,,,,,,,,,,,,TestWords/RAY_PA_TI.wav,,60fe65a2471965af7430d3cf,2021-08-06_16h02.47.684,Agingstudy,2020.2.10,Win32,60,,,,,C,,,,,,,,,,,,,,,2,0,0.3029,0,24,24,24,1,1,OLD,OLD,,,,,,,,
,,,,,,,,,,,,,,,,TestWords/MO_DAY_PU.wav,,60fe65a2471965af7430d3cf,2021-08-06_16h02.47.684,Agingstudy,2020.2.10,Win32,60,,,,,C,,,,,,,,,,,,,,,1,0,3.5187,0,25,25,25,1,2,NEW,SIMILAR,,,,,,,,
,,,,,,,,,,,,,,,,TestWords/DAI_RU_CHI.wav,,60fe65a2471965af7430d3cf,2021-08-06_16h02.47.684,Agingstudy,2020.2.10,Win32,60,,,,,C,,,,,,,,,,,,,,,1,1,0.452,0,26,26,26,1,1,OLD,OLD,,,,,,,,
,,,,,,,,,,,,,,,,TestWords/TAI_GI_SA.wav,,60fe65a2471965af7430d3cf,2021-08-06_16h02.47.684,Agingstudy,2020.2.10,Win32,60,,,,,C,,,,,,,,,,,,,,,1,0,0.0853,0,27,27,27,1,2,NEW,SIMILAR,,,,,,,,
,,,,,,,,,,,,,,,,TestWords/GA_MU_ZI.wav,,60fe65a2471965af7430d3cf,2021-08-06_16h02.47.684,Agingstudy,2020.2.10,Win32,60,,,,,C,,,,,,,,,,,,,,,2,1,0.1719,0,28,28,28,1,2,NEW,NEW,,,,,,,,
,,,,,,,,,,,,,,,,TestWords/BA_KAY_LI.wav,,60fe65a2471965af7430d3cf,2021-08-06_16h02.47.684,Agingstudy,2020.2.10,Win32,60,,,,,C,,,,,,,,,,,,,,,2,1,0.6407,0,29,29,29,1,2,NEW,NEW,,,,,,,,
,,,,,,,,,,,,,,,,TestWords/RAY_PA_TI.wav,,60fe65a2471965af7430d3cf,2021-08-06_16h02.47.684,Agingstudy,2020.2.10,Win32,60,,,,,C,,,,,,,,,,,,,,,1,1,0.2354,0,30,30,30,1,1,OLD,OLD,,,,,,,,
,,,,,,,,,,,,,,,,TestWords/KO_SU_FAI.wav,,60fe65a2471965af7430d3cf,2021-08-06_16h02.47.684,Agingstudy,2020.2.10,Win32,60,,,,,C,,,,,,,,,,,,,,,1,1,0.3342,0,31,31,31,1,1,OLD,OLD,,,,,,,,
,,,,,,,,,,,,,,,,TestWords/PU_DAY_MO.wav,,60fe65a2471965af7430d3cf,2021-08-06_16h02.47.684,Agingstudy,2020.2.10,Win32,60,,,,,C,,,,,,,,,,,,,,,2,1,0.4404,0,32,32,32,1,2,NEW,SIMILAR,,,,,,,,
,,,,,,,,,,,,,,,,TestWords/KAI_LAY_TA.wav,,60fe65a2471965af7430d3cf,2021-08-06_16h02.47.684,Agingstudy,2020.2.10,Win32,60,,,,,C,,,,,,,,,,,,,,,1,1,0.3017,0,33,33,33,1,1,OLD,OLD,,,,,,,,
,,,,,,,,,,,,,,,,TestWords/DAI_RU_CHI.wav,,60fe65a2471965af7430d3cf,2021-08-06_16h02.47.684,Agingstudy,2020.2.10,Win32,60,,,,,C,,,,,,,,,,,,,,,1,1,0.353,0,34,34,34,1,1,OLD,OLD,,,,,,,,
,,,,,,,,,,,,,,,,TestWords/KAY_LI_BA.wav,,60fe65a2471965af7430d3cf,2021-08-06_16h02.47.684,Agingstudy,2020.2.10,Win32,60,,,,,C,,,,,,,,,,,,,,,2,1,1.789,0,35,35,35,1,2,NEW,SIMILAR,,,,,,,,
,,,,,,,,,,,,,,,,TestWords/GA_MU_ZI.wav,,60fe65a2471965af7430d3cf,2021-08-06_16h02.47.684,Agingstudy,2020.2.10,Win32,60,,,,,C,,,,,,,,,,,,,,,2,0,0.2698,0,36,36,36,1,1,OLD,OLD,,,,,,,,
,,,,,,,,,,,,,,,,TestWords/RAY_PA_TI.wav,,60fe65a2471965af7430d3cf,2021-08-06_16h02.47.684,Agingstudy,2020.2.10,Win32,60,,,,,C,,,,,,,,,,,,,,,1,1,0.3932,0,37,37,37,1,1,OLD,OLD,,,,,,,,
,,,,,,,,,,,,,,,,TestWords/PU_MO_DAY.wav,,60fe65a2471965af7430d3cf,2021-08-06_16h02.47.684,Agingstudy,2020.2.10,Win32,60,,,,,C,,,,,,,,,,,,,,,1,0,0.7883,0,38,38,38,1,2,NEW,SIMILAR,,,,,,,,
,,,,,,,,,,,,,,,,TestWords/VAI_HO_LA.wav,,60fe65a2471965af7430d3cf,2021-08-06_16h02.47.684,Agingstudy,2020.2.10,Win32,60,,,,,C,,,,,,,,,,,,,,,2,1,0.5686,0,39,39,39,1,2,NEW,NEW,,,,,,,,
,,,,,,,,,,,,,,,,TestWords/KAI_LAY_TA.wav,,60fe65a2471965af7430d3cf,2021-08-06_16h02.47.684,Agingstudy,2020.2.10,Win32,60,,,,,C,,,,,,,,,,,,,,,1,1,0.8853,0,40,40,40,1,1,OLD,OLD,,,,,,,,
,,,,,,,,,,,,,,,,TestWords/KO_SU_FAI.wav,,60fe65a2471965af7430d3cf,2021-08-06_16h02.47.684,Agingstudy,2020.2.10,Win32,60,,,,,C,,,,,,,,,,,,,,,2,0,1.4438,0,41,41,41,1,1,OLD,OLD,,,,,,,,
,,,,,,,,,,,,,,,,TestWords/DAI_RU_CHI.wav,,60fe65a2471965af7430d3cf,2021-08-06_16h02.47.684,Agingstudy,2020.2.10,Win32,60,,,,,C,,,,,,,,,,,,,,,1,1,0.0009,0,42,42,42,1,1,OLD,OLD,,,,,,,,
,,,,,,,,,,,,,,,,TestWords/WAI_VU_NA.wav,,60fe65a2471965af7430d3cf,2021-08-06_16h02.47.684,Agingstudy,2020.2.10,Win32,60,,,,,C,,,,,,,,,,,,,,,2,1,0.1917,0,43,43,43,1,2,NEW,NEW,,,,,,,,
,,,,,,,,,,,,,,,,TestWords/GA_MU_ZI.wav,,60fe65a2471965af7430d3cf,2021-08-06_16h02.47.684,Agingstudy,2020.2.10,Win32,60,,,,,C,,,,,,,,,,,,,,,2,0,0.6192,0,44,44,44,1,1,OLD,OLD,,,,,,,,
,,,,,,,,,,,,,,,,TestWords/KAY_BA_LI.wav,,60fe65a2471965af7430d3cf,2021-08-06_16h02.47.684,Agingstudy,2020.2.10,Win32,60,,,,,C,,,,,,,,,,,,,,,1,0,0.1582,0,45,45,45,1,2,NEW,SIMILAR,,,,,,,,
,,,,,,,,,,,,,,,,TestWords/MO_PU_DAY.wav,,60fe65a2471965af7430d3cf,2021-08-06_16h02.47.684,Agingstudy,2020.2.10,Win32,60,,,,,C,,,,,,,,,,,,,,,1,0,1.1062,0,46,46,46,1,2,NEW,SIMILAR,,,,,,,,
,,,,,,,,,,,,,,,,TestWords/RAY_PA_TI.wav,,60fe65a2471965af7430d3cf,2021-08-06_16h02.47.684,Agingstudy,2020.2.10,Win32,60,,,,,C,,,,,,,,,,,,,,,1,1,0.5213,0,47,47,47,1,1,OLD,OLD,,,,,,,,
,,,,,,,,,,,,,,,,TestWords/KAI_LAY_TA.wav,,60fe65a2471965af7430d3cf,2021-08-06_16h02.47.684,Agingstudy,2020.2.10,Win32,60,,,,,C,,,,,,,,,,,,,,,1,1,0.0875,0,48,48,48,1,1,OLD,OLD,,,,,,,,
,,,,,,,,,,,,,,,,TestWords/WAI_NA_VU.wav,,60fe65a2471965af7430d3cf,2021-08-06_16h02.47.684,Agingstudy,2020.2.10,Win32,60,,,,,C,,,,,,,,,,,,,,,2,1,0.2067,0,49,49,49,1,2,NEW,SIMILAR,,,,,,,,
,,,,,,,,,,,,,,,,TestWords/KO_SU_FAI.wav,,60fe65a2471965af7430d3cf,2021-08-06_16h02.47.684,Agingstudy,2020.2.10,Win32,60,,,,,C,,,,,,,,,,,,,,,1,1,2.3765,0,50,50,50,1,1,OLD,OLD,,,,,,,,
,,,,,,,,,,,,,,,,TestWords/GA_MU_ZI.wav,,60fe65a2471965af7430d3cf,2021-08-06_16h02.47.684,Agingstudy,2020.2.10,Win32,60,,,,,C,,,,,,,,,,,,,,,2,0,1.1677,0,51,51,51,1,1,OLD,OLD,,,,,,,,
,,,,,,,,,,,,,,,,TestWords/NU_CHAY_SO.wav,,60fe65a2471965af7430d3cf,2021-08-06_16h02.47.684,Agingstudy,2020.2.10,Win32,60,,,,,C,,,,,,,,,,,,,,,2,1,0.2735,0,52,52,52,1,2,NEW,NEW,,,,,,,,
,,,,,,,,,,,,,,,,TestWords/DAI_RU_CHI.wav,,60fe65a2471965af7430d3cf,2021-08-06_16h02.47.684,Agingstudy,2020.2.10,Win32,60,,,,,C,,,,,,,,,,,,,,,1,1,0.101,0,53,53,53,1,1,OLD,OLD,,,,,,,,
,,,,,,,,,,,,,,,,TestWords/VU_NA_WAI.wav,,60fe65a2471965af7430d3cf,2021-08-06_16h02.47.684,Agingstudy,2020.2.10,Win32,60,,,,,C,,,,,,,,,,,,,,,2,1,0.4239,0,54,54,54,1,2,NEW,SIMILAR,,,,,,,,
,,,,,,,,,,,,,,,,TestWords/RAY_PA_TI.wav,,60fe65a2471965af7430d3cf,2021-08-06_16h02.47.684,Agingstudy,2020.2.10,Win32,60,,,,,C,,,,,,,,,,,,,,,1,1,0.3222,0,55,55,55,1,1,OLD,OLD,,,,,,,,
,,,,,,,,,,,,,,,,TestWords/KAI_LAY_TA.wav,,60fe65a2471965af7430d3cf,2021-08-06_16h02.47.684,Agingstudy,2020.2.10,Win32,60,,,,,C,,,,,,,,,,,,,,,1,1,0.5289,0,56,56,56,1,1,OLD,OLD,,,,,,,,
,,,,,,,,,,,,,,,,TestWords/LI_BA_KAY.wav,,60fe65a2471965af7430d3cf,2021-08-06_16h02.47.684,Agingstudy,2020.2.10,Win32,60,,,,,C,,,,,,,,,,,,,,,2,1,0.6547,0,57,57,57,1,2,NEW,SIMILAR,,,,,,,,
,,,,,,,,,,,,,,,,TestWords/GA_MU_ZI.wav,,60fe65a2471965af7430d3cf,2021-08-06_16h02.47.684,Agingstudy,2020.2.10,Win32,60,,,,,C,,,,,,,,,,,,,,,1,1,0.1525,0,58,58,58,1,1,OLD,OLD,,,,,,,,
,,,,,,,,,,,,,,,,TestWords/WAI_RO_JU.wav,,60fe65a2471965af7430d3cf,2021-08-06_16h02.47.684,Agingstudy,2020.2.10,Win32,60,,,,,C,,,,,,,,,,,,,,,1,0,0.891,0,59,59,59,1,2,NEW,NEW,,,,,,,,
,,,,,,,,,,,,,,,,TestWords/KO_SU_FAI.wav,,60fe65a2471965af7430d3cf,2021-08-06_16h02.47.684,Agingstudy,2020.2.10,Win32,60,,,,,C,,,,,,,,,,,,,,,1,1,0.4911,0,60,60,60,1,1,OLD,OLD,,,,,,,,
,,,,,,,,,,,,,,,,TestWords/DAI_RU_CHI.wav,,60fe65a2471965af7430d3cf,2021-08-06_16h02.47.684,Agingstudy,2020.2.10,Win32,60,,,,,C,,,,,,,,,,,,,,,1,1,0.0346,0,61,61,61,1,1,OLD,OLD,,,,,,,,
,,,,,,,,,,,,,,,,TestWords/VU_WAI_NA.wav,,60fe65a2471965af7430d3cf,2021-08-06_16h02.47.684,Agingstudy,2020.2.10,Win32,60,,,,,C,,,,,,,,,,,,,,,1,0,0.4202,0,62,62,62,1,2,NEW,SIMILAR,,,,,,,,
,,,,,,,,,,,,,,,,TestWords/RAY_PA_TI.wav,,60fe65a2471965af7430d3cf,2021-08-06_16h02.47.684,Agingstudy,2020.2.10,Win32,60,,,,,C,,,,,,,,,,,,,,,1,1,0.2216,0,63,63,63,1,1,OLD,OLD,,,,,,,,
,,,,,,,,,,,,,,,,TestWords/KAI_LAY_TA.wav,,60fe65a2471965af7430d3cf,2021-08-06_16h02.47.684,Agingstudy,2020.2.10,Win32,60,,,,,C,,,,,,,,,,,,,,,1,1,0.1433,0,64,64,64,1,1,OLD,OLD,,,,,,,,
,,,,,,,,,,,,,,,,TestWords/GA_MU_ZI.wav,,60fe65a2471965af7430d3cf,2021-08-06_16h02.47.684,Agingstudy,2020.2.10,Win32,60,,,,,C,,,,,,,,,,,,,,,1,1,2.0769,0,65,65,65,1,1,OLD,OLD,,,,,,,,
,,,,,,,,,,,,,,,,TestWords/BA_LI_KAY.wav,,60fe65a2471965af7430d3cf,2021-08-06_16h02.47.684,Agingstudy,2020.2.10,Win32,60,,,,,C,,,,,,,,,,,,,,,2,1,0.0536,0,66,66,66,1,2,NEW,SIMILAR,,,,,,,,
,,,,,,,,,,,,,,,,TestWords/NA_VU_WAI.wav,,60fe65a2471965af7430d3cf,2021-08-06_16h02.47.684,Agingstudy,2020.2.10,Win32,60,,,,,C,,,,,,,,,,,,,,,2,1,3.0619,0,67,67,67,1,2,NEW,SIMILAR,,,,,,,,
,,,,,,,,,,,,,,,,TestWords/KO_SU_FAI.wav,,60fe65a2471965af7430d3cf,2021-08-06_16h02.47.684,Agingstudy,2020.2.10,Win32,60,,,,,C,,,,,,,,,,,,,,,2,0,0.358,0,68,68,68,1,1,OLD,OLD,,,,,,,,
,,,,,,,,,,,,,,,,TestWords/RAI_ZO_FU.wav,,60fe65a2471965af7430d3cf,2021-08-06_16h02.47.684,Agingstudy,2020.2.10,Win32,60,,,,,C,,,,,,,,,,,,,,,2,1,0.395,0,69,69,69,1,2,NEW,NEW,,,,,,,,
,,,,,,,,,,,,,,,,TestWords/DAI_RU_CHI.wav,,60fe65a2471965af7430d3cf,2021-08-06_16h02.47.684,Agingstudy,2020.2.10,Win32,60,,,,,C,,,,,,,,,,,,,,,1,1,0.4626,0,70,70,70,1,1,OLD,OLD,,,,,,,,
,,,,,,,,,,,,,,,,TestWords/RAY_PA_TI.wav,,60fe65a2471965af7430d3cf,2021-08-06_16h02.47.684,Agingstudy,2020.2.10,Win32,60,,,,,C,,,,,,,,,,,,,,,1,1,0.1275,0,71,71,71,1,1,OLD,OLD,,,,,,,,
,,,,,,,,,,,,,,,,TestWords/LI_KAY_BA.wav,,60fe65a2471965af7430d3cf,2021-08-06_16h02.47.684,Agingstudy,2020.2.10,Win32,60,,,,,C,,,,,,,,,,,,,,,1,0,1.7019,0,72,72,72,1,2,NEW,SIMILAR,,,,,,,,
,,,,,,,,,,,,,,,,TestWords/KAI_LAY_TA.wav,,60fe65a2471965af7430d3cf,2021-08-06_16h02.47.684,Agingstudy,2020.2.10,Win32,60,,,,,C,,,,,,,,,,,,,,,1,1,0.7393,0,73,73,73,1,1,OLD,OLD,,,,,,,,
,,,,,,,,,,,,,,,,TestWords/GA_MU_ZI.wav,,60fe65a2471965af7430d3cf,2021-08-06_16h02.47.684,Agingstudy,2020.2.10,Win32,60,,,,,C,,,,,,,,,,,,,,,2,0,0.2019,0,74,74,74,1,1,OLD,OLD,,,,,,,,
,,,,,,,,,,,,,,,,TestWords/NA_WAI_VU.wav,,60fe65a2471965af7430d3cf,2021-08-06_16h02.47.684,Agingstudy,2020.2.10,Win32,60,,,,,C,,,,,,,,,,,,,,,1,0,1.3007,0,75,75,75,1,2,NEW,SIMILAR,,,,,,,,
,,,,,,,,,,,,,,,,TestWords/KO_SU_FAI.wav,,60fe65a2471965af7430d3cf,2021-08-06_16h02.47.684,Agingstudy,2020.2.10,Win32,60,,,,,C,,,,,,,,,,,,,,,2,0,1.5704,0,76,76,76,1,1,OLD,OLD,,,,,,,,
,,,,,,,,,,,,,,,,TestWords/ZO_RAI_FU.wav,,60fe65a2471965af7430d3cf,2021-08-06_16h02.47.684,Agingstudy,2020.2.10,Win32,60,,,,,C,,,,,,,,,,,,,,,2,1,0.432,0,77,77,77,1,2,NEW,SIMILAR,,,,,,,,
,,,,,,,,,,,,,,,,TestWords/RAY_PA_TI.wav,,60fe65a2471965af7430d3cf,2021-08-06_16h02.47.684,Agingstudy,2020.2.10,Win32,60,,,,,C,,,,,,,,,,,,,,,1,1,0.1197,0,78,78,78,1,1,OLD,OLD,,,,,,,,
,,,,,,,,,,,,,,,,TestWords/KAI_LAY_TA.wav,,60fe65a2471965af7430d3cf,2021-08-06_16h02.47.684,Agingstudy,2020.2.10,Win32,60,,,,,C,,,,,,,,,,,,,,,1,1,0.0378,0,79,79,79,1,1,OLD,OLD,,,,,,,,
,,,,,,,,,,,,,,,,TestWords/GA_MU_ZI.wav,,60fe65a2471965af7430d3cf,2021-08-06_16h02.47.684,Agingstudy,2020.2.10,Win32,60,,,,,C,,,,,,,,,,,,,,,1,1,0.2176,0,80,80,80,1,1,OLD,OLD,,,,,,,,
,,,,,,,,,,,,,,,,TestWords/DA_CHU_VAI.wav,,60fe65a2471965af7430d3cf,2021-08-06_16h02.47.684,Agingstudy,2020.2.10,Win32,60,,,,,C,,,,,,,,,,,,,,,2,1,1.0711,0,81,81,81,1,2,NEW,NEW,,,,,,,,
,,,,,,,,,,,,,,,,TestWords/DAI_RU_CHI.wav,,60fe65a2471965af7430d3cf,2021-08-06_16h02.47.684,Agingstudy,2020.2.10,Win32,60,,,,,C,,,,,,,,,,,,,,,1,1,0.089,0,82,82,82,1,1,OLD,OLD,,,,,,,,
,,,,,,,,,,,,,,,,TestWords/FU_RAI_ZO.wav,,60fe65a2471965af7430d3cf,2021-08-06_16h02.47.684,Agingstudy,2020.2.10,Win32,60,,,,,C,,,,,,,,,,,,,,,1,0,0.1846,0,83,83,83,1,2,NEW,SIMILAR,,,,,,,,
,,,,,,,,,,,,,,,,TestWords/KO_SU_FAI.wav,,60fe65a2471965af7430d3cf,2021-08-06_16h02.47.684,Agingstudy,2020.2.10,Win32,60,,,,,C,,,,,,,,,,,,,,,1,1,0.7871,0,84,84,84,1,1,OLD,OLD,,,,,,,,
,,,,,,,,,,,,,,,,TestWords/RAY_PA_TI.wav,,60fe65a2471965af7430d3cf,2021-08-06_16h02.47.684,Agingstudy,2020.2.10,Win32,60,,,,,C,,,,,,,,,,,,,,,1,1,0.3526,0,85,85,85,1,1,OLD,OLD,,,,,,,,
,,,,,,,,,,,,,,,,TestWords/DAI_RU_CHI.wav,,60fe65a2471965af7430d3cf,2021-08-06_16h02.47.684,Agingstudy,2020.2.10,Win32,60,,,,,C,,,,,,,,,,,,,,,1,1,0.1632,0,86,86,86,1,1,OLD,OLD,,,,,,,,
,,,,,,,,,,,,,,,,TestWords/PAI_LU_WA.wav,,60fe65a2471965af7430d3cf,2021-08-06_16h02.47.684,Agingstudy,2020.2.10,Win32,60,,,,,C,,,,,,,,,,,,,,,2,1,0.2803,0,87,87,87,1,2,NEW,NEW,,,,,,,,
,,,,,,,,,,,,,,,,TestWords/GA_MU_ZI.wav,,60fe65a2471965af7430d3cf,2021-08-06_16h02.47.684,Agingstudy,2020.2.10,Win32,60,,,,,C,,,,,,,,,,,,,,,1,1,1.1686,0,88,88,88,1,1,OLD,OLD,,,,,,,,
,,,,,,,,,,,,,,,,TestWords/FU_ZO_RAI.wav,,60fe65a2471965af7430d3cf,2021-08-06_16h02.47.684,Agingstudy,2020.2.10,Win32,60,,,,,C,,,,,,,,,,,,,,,1,0,0.2285,0,89,89,89,1,2,NEW,SIMILAR,,,,,,,,
,,,,,,,,,,,,,,,,TestWords/RAY_PA_TI.wav,,60fe65a2471965af7430d3cf,2021-08-06_16h02.47.684,Agingstudy,2020.2.10,Win32,60,,,,,C,,,,,,,,,,,,,,,1,1,0.1255,0,90,90,90,1,1,OLD,OLD,,,,,,,,
,,,,,,,,,,,,,,,,TestWords/DAI_RU_CHI.wav,,60fe65a2471965af7430d3cf,2021-08-06_16h02.47.684,Agingstudy,2020.2.10,Win32,60,,,,,C,,,,,,,,,,,,,,,1,1,0.1244,0,91,91,91,1,1,OLD,OLD,,,,,,,,
,,,,,,,,,,,,,,,,TestWords/LA_ZAY_CHAI.wav,,60fe65a2471965af7430d3cf,2021-08-06_16h02.47.684,Agingstudy,2020.2.10,Win32,60,,,,,C,,,,,,,,,,,,,,,2,1,2.4431,0,92,92,92,1,2,NEW,NEW,,,,,,,,
,,,,,,,,,,,,,,,,TestWords/GA_MU_ZI.wav,,60fe65a2471965af7430d3cf,2021-08-06_16h02.47.684,Agingstudy,2020.2.10,Win32,60,,,,,C,,,,,,,,,,,,,,,1,1,0.7516,0,93,93,93,1,1,OLD,OLD,,,,,,,,
,,,,,,,,,,,,,,,,TestWords/RAI_FU_ZO.wav,,60fe65a2471965af7430d3cf,2021-08-06_16h02.47.684,Agingstudy,2020.2.10,Win32,60,,,,,C,,,,,,,,,,,,,,,2,1,0.4883,0,94,94,94,1,2,NEW,SIMILAR,,,,,,,,
,,,,,,,,,,,,,,,,TestWords/GU_CHAI_PI.wav,,60fe65a2471965af7430d3cf,2021-08-06_16h02.47.684,Agingstudy,2020.2.10,Win32,60,,,,,C,,,,,,,,,,,,,,,2,1,0.1118,0,95,95,95,1,2,NEW,NEW,,,,,,,,
,,,,,,,,,,,,,,,,TestWords/HI_NAY_VA.wav,,60fe65a2471965af7430d3cf,2021-08-06_16h02.47.684,Agingstudy,2020.2.10,Win32,60,,,,,C,,,,,,,,,,,,,,,2,1,0.2346,0,96,96,96,1,2,NEW,NEW,,,,,,,,
,,,,,,,,,,,,,,,,TestWords/GA_MU_ZI.wav,,60fe65a2471965af7430d3cf,2021-08-06_16h02.47.684,Agingstudy,2020.2.10,Win32,60,,,,,C,,,,,,,,,,,,,,,1,1,0.0565,0,97,97,97,1,1,OLD,OLD,,,,,,,,
,,,,,,,,,,,,,,,,TestWords/SI_VAI_CHU.wav,,60fe65a2471965af7430d3cf,2021-08-06_16h02.47.684,Agingstudy,2020.2.10,Win32,60,,,,,C,,,,,,,,,,,,,,,2,1,0.6579,0,98,98,98,1,2,NEW,NEW,,,,,,,,
,,,,,,,,,,,,,,,,TestWords/ZO_FU_RAI.wav,,60fe65a2471965af7430d3cf,2021-08-06_16h02.47.684,Agingstudy,2020.2.10,Win32,60,,,,,C,,,,,,,,,,,,,,,1,0,0.3186,0,99,99,99,1,2,NEW,SIMILAR,,,,,,,,
,,,,,,,,,,,,,,,,,,60fe65a2471965af7430d3cf,2021-08-06_16h02.47.684,Agingstudy,2020.2.10,Win32,60,,,,,,,,,,,,,,,,,,,,,,,,,,,,,,,0,0,0,0,1,,,
,,,,,,,,,,,,,,,,,,60fe65a2471965af7430d3cf,2021-08-06_16h02.47.684,Agingstudy,2020.2.10,Win32,60,,,,,,,,,,,,,,,,,,,,,,,,,,,,,,,,,,,,return,12.5955,
