Welcome0Continue.keys,Welcome0Continue.rt,SoundCheckBegin.keys,SoundCheckBegin.rt,SoundCheckEndKey.keys,SoundCheckEndKey.rt,HeadphoneContinueKey.keys,HeadphoneContinueKey.rt,CheckResp.keys,CheckResp.corr,CheckResp.rt,HeadphoneLoop.thisRepN,HeadphoneLoop.thisTrialN,HeadphoneLoop.thisN,HeadphoneLoop.thisIndex,HeadphoneLoop.ran,File,Correct,participant,date,expName,psychopyVersion,OS,frameRate,RepeatAgainKey.keys,RepeatAgainKey.rt,RepeatAgainLoop.thisRepN,RepeatAgainLoop.thisTrialN,RepeatAgainLoop.thisN,RepeatAgainLoop.thisIndex,RepeatAgainLoop.ran,Headphone_retest.thisRepN,Headphone_retest.thisTrialN,Headphone_retest.thisN,Headphone_retest.thisIndex,Headphone_retest.ran,ContinueButton.keys,ContinueButton.rt,Condition,ExposureIntroKey.keys,ExposureIntroKey.rt,ExposureLoop.thisRepN,ExposureLoop.thisTrialN,ExposureLoop.thisN,ExposureLoop.thisIndex,ExposureLoop.ran,Position,Sound,SyllableFile,PauseCheckKey.keys,PauseCheckKey.rt,PauseOnOff.thisRepN,PauseOnOff.thisTrialN,PauseOnOff.thisN,PauseOnOff.thisIndex,PauseOnOff.ran
space,2.7119,space,2.0149,space,1.4298,space,19.1977,1,0,4.642,0,0,0,4,1,Headphone/t3_1.wav,3,60ffcba4730586b1982c5bf5,2021-08-05_22h11.39.251,Agingstudy,2020.2.10,MacIntel,60,,,,,,,,,,,,,,,,,,,,,,,,,,,,,,,,
,,,,,,,,3,0,1.6725,0,1,1,0,1,Headphone/t1_1.wav,1,60ffcba4730586b1982c5bf5,2021-08-05_22h11.39.251,Agingstudy,2020.2.10,MacIntel,60,,,,,,,,,,,,,,,,,,,,,,,,,,,,,,,,
,,,,,,,,1,1,2.2454,0,2,2,1,1,Headphone/t1_2.wav,1,60ffcba4730586b1982c5bf5,2021-08-05_22h11.39.251,Agingstudy,2020.2.10,MacIntel,60,,,,,,,,,,,,,,,,,,,,,,,,,,,,,,,,
,,,,,,,,2,1,0.6076,0,3,3,2,1,Headphone/t2_1.wav,2,60ffcba4730586b1982c5bf5,2021-08-05_22h11.39.251,Agingstudy,2020.2.10,MacIntel,60,,,,,,,,,,,,,,,,,,,,,,,,,,,,,,,,
,,,,,,,,3,1,0.3215,0,4,4,5,1,Headphone/t3_2.wav,3,60ffcba4730586b1982c5bf5,2021-08-05_22h11.39.251,Agingstudy,2020.2.10,MacIntel,60,,,,,,,,,,,,,,,,,,,,,,,,,,,,,,,,
,,,,,,,,2,1,0.2268,0,5,5,3,1,Headphone/t2_2.wav,2,60ffcba4730586b1982c5bf5,2021-08-05_22h11.39.251,Agingstudy,2020.2.10,MacIntel,60,,,,,,,,,,,,,,,,,,,,,,,,,,,,,,,,
,,,,,,,,,,,,,,,,,,60ffcba4730586b1982c5bf5,2021-08-05_22h11.39.251,Agingstudy,2020.2.10,MacIntel,60,space,2.2754,0,0,0,0,1,,,,,,,,,,,,,,,,,,,,,,,,,
,,,,,,,,,,,,,,,,,,60ffcba4730586b1982c5bf5,2021-08-05_22h11.39.251,Agingstudy,2020.2.10,MacIntel,60,,,,,,,,0,0,0,0,1,,,,,,,,,,,,,,,,,,,,
,,,,,,,,3,1,0.1202,0,0,0,5,1,Headphone/t3_2.wav,3,60ffcba4730586b1982c5bf5,2021-08-05_22h11.39.251,Agingstudy,2020.2.10,MacIntel,60,,,,,,,,,,,,,,,,,,,,,,,,,,,,,,,,
,,,,,,,,3,1,0.0432,0,1,1,4,1,Headphone/t3_1.wav,3,60ffcba4730586b1982c5bf5,2021-08-05_22h11.39.251,Agingstudy,2020.2.10,MacIntel,60,,,,,,,,,,,,,,,,,,,,,,,,,,,,,,,,
,,,,,,,,2,1,0.1513,0,2,2,2,1,Headphone/t2_1.wav,2,60ffcba4730586b1982c5bf5,2021-08-05_22h11.39.251,Agingstudy,2020.2.10,MacIntel,60,,,,,,,,,,,,,,,,,,,,,,,,,,,,,,,,
,,,,,,,,1,1,0.2174,0,3,3,1,1,Headphone/t1_2.wav,1,60ffcba4730586b1982c5bf5,2021-08-05_22h11.39.251,Agingstudy,2020.2.10,MacIntel,60,,,,,,,,,,,,,,,,,,,,,,,,,,,,,,,,
,,,,,,,,2,1,0.2287,0,4,4,3,1,Headphone/t2_2.wav,2,60ffcba4730586b1982c5bf5,2021-08-05_22h11.39.251,Agingstudy,2020.2.10,MacIntel,60,,,,,,,,,,,,,,,,,,,,,,,,,,,,,,,,
,,,,,,,,1,1,0.1696,0,5,5,0,1,Headphone/t1_1.wav,1,60ffcba4730586b1982c5bf5,2021-08-05_22h11.39.251,Agingstudy,2020.2.10,MacIntel,60,,,,,,,,,,,,,,,,,,,,,,,,,,,,,,,,
,,,,,,,,,,,,,,,,,,60ffcba4730586b1982c5bf5,2021-08-05_22h11.39.251,Agingstudy,2020.2.10,MacIntel,60,,,,,,,,,,,,,space,9.3454,2,space,1.0092,0,0,0,0,1,1,pu,SL_Sounds/pu.wav,,,,,,,
,,,,,,,,,,,,,,,,,,60ffcba4730586b1982c5bf5,2021-08-05_22h11.39.251,Agingstudy,2020.2.10,MacIntel,60,,,,,,,,,,,,,,,,,,0,1,1,1,1,2,ni,SL_Sounds/ni.wav,,,,,,,
,,,,,,,,,,,,,,,,,,60ffcba4730586b1982c5bf5,2021-08-05_22h11.39.251,Agingstudy,2020.2.10,MacIntel,60,,,,,,,,,,,,,,,,,,0,2,2,2,1,3,ru,SL_Sounds/ru.wav,,,,,,,
,,,,,,,,,,,,,,,,,,60ffcba4730586b1982c5bf5,2021-08-05_22h11.39.251,Agingstudy,2020.2.10,MacIntel,60,,,,,,,,,,,,,,,,,,0,3,3,3,1,1,ti,SL_Sounds/ti.wav,,,,,,,
,,,,,,,,,,,,,,,,,,60ffcba4730586b1982c5bf5,2021-08-05_22h11.39.251,Agingstudy,2020.2.10,MacIntel,60,,,,,,,,,,,,,,,,,,0,4,4,4,1,2,su,SL_Sounds/su.wav,,,,,,,
,,,,,,,,,,,,,,,,,,60ffcba4730586b1982c5bf5,2021-08-05_22h11.39.251,Agingstudy,2020.2.10,MacIntel,60,,,,,,,,,,,,,,,,,,0,5,5,5,1,3,fe,SL_Sounds/fe.wav,,,,,,,
,,,,,,,,,,,,,,,,,,60ffcba4730586b1982c5bf5,2021-08-05_22h11.39.251,Agingstudy,2020.2.10,MacIntel,60,,,,,,,,,,,,,,,,,,0,6,6,6,1,1,ge,SL_Sounds/ge.wav,,,,,,,
,,,,,,,,,,,,,,,,,,60ffcba4730586b1982c5bf5,2021-08-05_22h11.39.251,Agingstudy,2020.2.10,MacIntel,60,,,,,,,,,,,,,,,,,,0,7,7,7,1,2,me,SL_Sounds/me.wav,,,,,,,
,,,,,,,,,,,,,,,,,,60ffcba4730586b1982c5bf5,2021-08-05_22h11.39.251,Agingstudy,2020.2.10,MacIntel,60,,,,,,,,,,,,,,,,,,0,8,8,8,1,3,re,SL_Sounds/re.wav,,,,,,,
,,,,,,,,,,,,,,,,,,60ffcba4730586b1982c5bf5,2021-08-05_22h11.39.251,Agingstudy,2020.2.10,MacIntel,60,,,,,,,,,,,,,,,,,,0,9,9,9,1,1,ti,SL_Sounds/ti.wav,,,,,,,
,,,,,,,,,,,,,,,,,,60ffcba4730586b1982c5bf5,2021-08-05_22h11.39.251,Agingstudy,2020.2.10,MacIntel,60,,,,,,,,,,,,,,,,,,0,10,10,10,1,2,su,SL_Sounds/su.wav,,,,,,,
,,,,,,,,,,,,,,,,,,60ffcba4730586b1982c5bf5,2021-08-05_22h11.39.251,Agingstudy,2020.2.10,MacIntel,60,,,,,,,,,,,,,,,,,,0,11,11,11,1,3,fe,SL_Sounds/fe.wav,,,,,,,
,,,,,,,,,,,,,,,,,,60ffcba4730586b1982c5bf5,2021-08-05_22h11.39.251,Agingstudy,2020.2.10,MacIntel,60,,,,,,,,,,,,,,,,,,0,12,12,12,1,1,pu,SL_Sounds/pu.wav,,,,,,,
,,,,,,,,,,,,,,,,,,60ffcba4730586b1982c5bf5,2021-08-05_22h11.39.251,Agingstudy,2020.2.10,MacIntel,60,,,,,,,,,,,,,,,,,,0,13,13,13,1,2,ni,SL_Sounds/ni.wav,,,,,,,
,,,,,,,,,,,,,,,,,,60ffcba4730586b1982c5bf5,2021-08-05_22h11.39.251,Agingstudy,2020.2.10,MacIntel,60,,,,,,,,,,,,,,,,,,0,14,14,14,1,3,ru,SL_Sounds/ru.wav,,,,,,,
,,,,,,,,,,,,,,,,,,60ffcba4730586b1982c5bf5,2021-08-05_22h11.39.251,Agingstudy,2020.2.10,MacIntel,60,,,,,,,,,,,,,,,,,,0,15,15,15,1,1,ge,SL_Sounds/ge.wav,,,,,,,
,,,,,,,,,,,,,,,,,,60ffcba4730586b1982c5bf5,2021-08-05_22h11.39.251,Agingstudy,2020.2.10,MacIntel,60,,,,,,,,,,,,,,,,,,0,16,16,16,1,2,me,SL_Sounds/me.wav,,,,,,,
,,,,,,,,,,,,,,,,,,60ffcba4730586b1982c5bf5,2021-08-05_22h11.39.251,Agingstudy,2020.2.10,MacIntel,60,,,,,,,,,,,,,,,,,,0,17,17,17,1,3,re,SL_Sounds/re.wav,,,,,,,
,,,,,,,,,,,,,,,,,,60ffcba4730586b1982c5bf5,2021-08-05_22h11.39.251,Agingstudy,2020.2.10,MacIntel,60,,,,,,,,,,,,,,,,,,0,18,18,18,1,1,pu,SL_Sounds/pu.wav,,,,,,,
,,,,,,,,,,,,,,,,,,60ffcba4730586b1982c5bf5,2021-08-05_22h11.39.251,Agingstudy,2020.2.10,MacIntel,60,,,,,,,,,,,,,,,,,,0,19,19,19,1,2,ni,SL_Sounds/ni.wav,,,,,,,
,,,,,,,,,,,,,,,,,,60ffcba4730586b1982c5bf5,2021-08-05_22h11.39.251,Agingstudy,2020.2.10,MacIntel,60,,,,,,,,,,,,,,,,,,0,20,20,20,1,3,ru,SL_Sounds/ru.wav,,,,,,,
,,,,,,,,,,,,,,,,,,60ffcba4730586b1982c5bf5,2021-08-05_22h11.39.251,Agingstudy,2020.2.10,MacIntel,60,,,,,,,,,,,,,,,,,,0,21,21,21,1,1,ti,SL_Sounds/ti.wav,,,,,,,
,,,,,,,,,,,,,,,,,,60ffcba4730586b1982c5bf5,2021-08-05_22h11.39.251,Agingstudy,2020.2.10,MacIntel,60,,,,,,,,,,,,,,,,,,0,22,22,22,1,2,su,SL_Sounds/su.wav,,,,,,,
,,,,,,,,,,,,,,,,,,60ffcba4730586b1982c5bf5,2021-08-05_22h11.39.251,Agingstudy,2020.2.10,MacIntel,60,,,,,,,,,,,,,,,,,,0,23,23,23,1,3,fe,SL_Sounds/fe.wav,,,,,,,
,,,,,,,,,,,,,,,,,,60ffcba4730586b1982c5bf5,2021-08-05_22h11.39.251,Agingstudy,2020.2.10,MacIntel,60,,,,,,,,,,,,,,,,,,0,24,24,24,1,1,ge,SL_Sounds/ge.wav,,,,,,,
,,,,,,,,,,,,,,,,,,60ffcba4730586b1982c5bf5,2021-08-05_22h11.39.251,Agingstudy,2020.2.10,MacIntel,60,,,,,,,,,,,,,,,,,,0,25,25,25,1,2,me,SL_Sounds/me.wav,,,,,,,
,,,,,,,,,,,,,,,,,,60ffcba4730586b1982c5bf5,2021-08-05_22h11.39.251,Agingstudy,2020.2.10,MacIntel,60,,,,,,,,,,,,,,,,,,0,26,26,26,1,3,re,SL_Sounds/re.wav,,,,,,,
,,,,,,,,,,,,,,,,,,60ffcba4730586b1982c5bf5,2021-08-05_22h11.39.251,Agingstudy,2020.2.10,MacIntel,60,,,,,,,,,,,,,,,,,,0,27,27,27,1,1,fu,SL_Sounds/fu.wav,,,,,,,
,,,,,,,,,,,,,,,,,,60ffcba4730586b1982c5bf5,2021-08-05_22h11.39.251,Agingstudy,2020.2.10,MacIntel,60,,,,,,,,,,,,,,,,,,0,28,28,28,1,2,ko,SL_Sounds/ko.wav,,,,,,,
,,,,,,,,,,,,,,,,,,60ffcba4730586b1982c5bf5,2021-08-05_22h11.39.251,Agingstudy,2020.2.10,MacIntel,60,,,,,,,,,,,,,,,,,,0,29,29,29,1,3,ta,SL_Sounds/ta.wav,,,,,,,
,,,,,,,,,,,,,,,,,,60ffcba4730586b1982c5bf5,2021-08-05_22h11.39.251,Agingstudy,2020.2.10,MacIntel,60,,,,,,,,,,,,,,,,,,0,30,30,30,1,1,ge,SL_Sounds/ge.wav,,,,,,,
,,,,,,,,,,,,,,,,,,60ffcba4730586b1982c5bf5,2021-08-05_22h11.39.251,Agingstudy,2020.2.10,MacIntel,60,,,,,,,,,,,,,,,,,,0,31,31,31,1,2,me,SL_Sounds/me.wav,,,,,,,
,,,,,,,,,,,,,,,,,,60ffcba4730586b1982c5bf5,2021-08-05_22h11.39.251,Agingstudy,2020.2.10,MacIntel,60,,,,,,,,,,,,,,,,,,0,32,32,32,1,3,re,SL_Sounds/re.wav,,,,,,,
,,,,,,,,,,,,,,,,,,60ffcba4730586b1982c5bf5,2021-08-05_22h11.39.251,Agingstudy,2020.2.10,MacIntel,60,,,,,,,,,,,,,,,,,,0,33,33,33,1,1,pu,SL_Sounds/pu.wav,,,,,,,
,,,,,,,,,,,,,,,,,,60ffcba4730586b1982c5bf5,2021-08-05_22h11.39.251,Agingstudy,2020.2.10,MacIntel,60,,,,,,,,,,,,,,,,,,0,34,34,34,1,2,ni,SL_Sounds/ni.wav,,,,,,,
,,,,,,,,,,,,,,,,,,60ffcba4730586b1982c5bf5,2021-08-05_22h11.39.251,Agingstudy,2020.2.10,MacIntel,60,,,,,,,,,,,,,,,,,,0,35,35,35,1,3,ru,SL_Sounds/ru.wav,,,,,,,
,,,,,,,,,,,,,,,,,,60ffcba4730586b1982c5bf5,2021-08-05_22h11.39.251,Agingstudy,2020.2.10,MacIntel,60,,,,,,,,,,,,,,,,,,0,36,36,36,1,1,ti,SL_Sounds/ti.wav,,,,,,,
,,,,,,,,,,,,,,,,,,60ffcba4730586b1982c5bf5,2021-08-05_22h11.39.251,Agingstudy,2020.2.10,MacIntel,60,,,,,,,,,,,,,,,,,,0,37,37,37,1,2,su,SL_Sounds/su.wav,,,,,,,
,,,,,,,,,,,,,,,,,,60ffcba4730586b1982c5bf5,2021-08-05_22h11.39.251,Agingstudy,2020.2.10,MacIntel,60,,,,,,,,,,,,,,,,,,0,38,38,38,1,3,fe,SL_Sounds/fe.wav,,,,,,,
,,,,,,,,,,,,,,,,,,60ffcba4730586b1982c5bf5,2021-08-05_22h11.39.251,Agingstudy,2020.2.10,MacIntel,60,,,,,,,,,,,,,,,,,,0,39,39,39,1,1,fu,SL_Sounds/fu.wav,,,,,,,
,,,,,,,,,,,,,,,,,,60ffcba4730586b1982c5bf5,2021-08-05_22h11.39.251,Agingstudy,2020.2.10,MacIntel,60,,,,,,,,,,,,,,,,,,0,40,40,40,1,2,ko,SL_Sounds/ko.wav,,,,,,,
,,,,,,,,,,,,,,,,,,60ffcba4730586b1982c5bf5,2021-08-05_22h11.39.251,Agingstudy,2020.2.10,MacIntel,60,,,,,,,,,,,,,,,,,,0,41,41,41,1,3,ta,SL_Sounds/ta.wav,,,,,,,
,,,,,,,,,,,,,,,,,,60ffcba4730586b1982c5bf5,2021-08-05_22h11.39.251,Agingstudy,2020.2.10,MacIntel,60,,,,,,,,,,,,,,,,,,0,42,42,42,1,1,pu,SL_Sounds/pu.wav,,,,,,,
,,,,,,,,,,,,,,,,,,60ffcba4730586b1982c5bf5,2021-08-05_22h11.39.251,Agingstudy,2020.2.10,MacIntel,60,,,,,,,,,,,,,,,,,,0,43,43,43,1,2,ni,SL_Sounds/ni.wav,,,,,,,
,,,,,,,,,,,,,,,,,,60ffcba4730586b1982c5bf5,2021-08-05_22h11.39.251,Agingstudy,2020.2.10,MacIntel,60,,,,,,,,,,,,,,,,,,0,44,44,44,1,3,ru,SL_Sounds/ru.wav,,,,,,,
,,,,,,,,,,,,,,,,,,60ffcba4730586b1982c5bf5,2021-08-05_22h11.39.251,Agingstudy,2020.2.10,MacIntel,60,,,,,,,,,,,,,,,,,,0,45,45,45,1,1,ge,SL_Sounds/ge.wav,,,,,,,
,,,,,,,,,,,,,,,,,,60ffcba4730586b1982c5bf5,2021-08-05_22h11.39.251,Agingstudy,2020.2.10,MacIntel,60,,,,,,,,,,,,,,,,,,0,46,46,46,1,2,me,SL_Sounds/me.wav,,,,,,,
,,,,,,,,,,,,,,,,,,60ffcba4730586b1982c5bf5,2021-08-05_22h11.39.251,Agingstudy,2020.2.10,MacIntel,60,,,,,,,,,,,,,,,,,,0,47,47,47,1,3,re,SL_Sounds/re.wav,,,,,,,
,,,,,,,,,,,,,,,,,,60ffcba4730586b1982c5bf5,2021-08-05_22h11.39.251,Agingstudy,2020.2.10,MacIntel,60,,,,,,,,,,,,,,,,,,0,48,48,48,1,1,fu,SL_Sounds/fu.wav,,,,,,,
,,,,,,,,,,,,,,,,,,60ffcba4730586b1982c5bf5,2021-08-05_22h11.39.251,Agingstudy,2020.2.10,MacIntel,60,,,,,,,,,,,,,,,,,,0,49,49,49,1,2,ko,SL_Sounds/ko.wav,,,,,,,
,,,,,,,,,,,,,,,,,,60ffcba4730586b1982c5bf5,2021-08-05_22h11.39.251,Agingstudy,2020.2.10,MacIntel,60,,,,,,,,,,,,,,,,,,0,50,50,50,1,3,ta,SL_Sounds/ta.wav,,,,,,,
,,,,,,,,,,,,,,,,,,60ffcba4730586b1982c5bf5,2021-08-05_22h11.39.251,Agingstudy,2020.2.10,MacIntel,60,,,,,,,,,,,,,,,,,,0,51,51,51,1,1,ti,SL_Sounds/ti.wav,,,,,,,
,,,,,,,,,,,,,,,,,,60ffcba4730586b1982c5bf5,2021-08-05_22h11.39.251,Agingstudy,2020.2.10,MacIntel,60,,,,,,,,,,,,,,,,,,0,52,52,52,1,2,su,SL_Sounds/su.wav,,,,,,,
,,,,,,,,,,,,,,,,,,60ffcba4730586b1982c5bf5,2021-08-05_22h11.39.251,Agingstudy,2020.2.10,MacIntel,60,,,,,,,,,,,,,,,,,,0,53,53,53,1,3,fe,SL_Sounds/fe.wav,,,,,,,
,,,,,,,,,,,,,,,,,,60ffcba4730586b1982c5bf5,2021-08-05_22h11.39.251,Agingstudy,2020.2.10,MacIntel,60,,,,,,,,,,,,,,,,,,0,54,54,54,1,1,fu,SL_Sounds/fu.wav,,,,,,,
,,,,,,,,,,,,,,,,,,60ffcba4730586b1982c5bf5,2021-08-05_22h11.39.251,Agingstudy,2020.2.10,MacIntel,60,,,,,,,,,,,,,,,,,,0,55,55,55,1,2,ko,SL_Sounds/ko.wav,,,,,,,
,,,,,,,,,,,,,,,,,,60ffcba4730586b1982c5bf5,2021-08-05_22h11.39.251,Agingstudy,2020.2.10,MacIntel,60,,,,,,,,,,,,,,,,,,,,,,,,,,space,0.4424,0,0,0,0,1
,,,,,,,,,,,,,,,,,,60ffcba4730586b1982c5bf5,2021-08-05_22h11.39.251,Agingstudy,2020.2.10,MacIntel,60,,,,,,,,,,,,,,,,,,0,56,56,56,1,3,ta,SL_Sounds/ta.wav,,,,,,,
,,,,,,,,,,,,,,,,,,60ffcba4730586b1982c5bf5,2021-08-05_22h11.39.251,Agingstudy,2020.2.10,MacIntel,60,,,,,,,,,,,,,,,,,,0,57,57,57,1,1,ti,SL_Sounds/ti.wav,,,,,,,
,,,,,,,,,,,,,,,,,,60ffcba4730586b1982c5bf5,2021-08-05_22h11.39.251,Agingstudy,2020.2.10,MacIntel,60,,,,,,,,,,,,,,,,,,0,58,58,58,1,2,su,SL_Sounds/su.wav,,,,,,,
,,,,,,,,,,,,,,,,,,60ffcba4730586b1982c5bf5,2021-08-05_22h11.39.251,Agingstudy,2020.2.10,MacIntel,60,,,,,,,,,,,,,,,,,,0,59,59,59,1,3,fe,SL_Sounds/fe.wav,,,,,,,
,,,,,,,,,,,,,,,,,,60ffcba4730586b1982c5bf5,2021-08-05_22h11.39.251,Agingstudy,2020.2.10,MacIntel,60,,,,,,,,,,,,,,,,,,0,60,60,60,1,1,fu,SL_Sounds/fu.wav,,,,,,,
,,,,,,,,,,,,,,,,,,60ffcba4730586b1982c5bf5,2021-08-05_22h11.39.251,Agingstudy,2020.2.10,MacIntel,60,,,,,,,,,,,,,,,,,,0,61,61,61,1,2,ko,SL_Sounds/ko.wav,,,,,,,
,,,,,,,,,,,,,,,,,,60ffcba4730586b1982c5bf5,2021-08-05_22h11.39.251,Agingstudy,2020.2.10,MacIntel,60,,,,,,,,,,,,,,,,,,0,62,62,62,1,3,ta,SL_Sounds/ta.wav,,,,,,,
,,,,,,,,,,,,,,,,,,60ffcba4730586b1982c5bf5,2021-08-05_22h11.39.251,Agingstudy,2020.2.10,MacIntel,60,,,,,,,,,,,,,,,,,,0,63,63,63,1,1,pu,SL_Sounds/pu.wav,,,,,,,
,,,,,,,,,,,,,,,,,,60ffcba4730586b1982c5bf5,2021-08-05_22h11.39.251,Agingstudy,2020.2.10,MacIntel,60,,,,,,,,,,,,,,,,,,0,64,64,64,1,2,ni,SL_Sounds/ni.wav,,,,,,,
,,,,,,,,,,,,,,,,,,60ffcba4730586b1982c5bf5,2021-08-05_22h11.39.251,Agingstudy,2020.2.10,MacIntel,60,,,,,,,,,,,,,,,,,,0,65,65,65,1,3,ru,SL_Sounds/ru.wav,,,,,,,
,,,,,,,,,,,,,,,,,,60ffcba4730586b1982c5bf5,2021-08-05_22h11.39.251,Agingstudy,2020.2.10,MacIntel,60,,,,,,,,,,,,,,,,,,0,66,66,66,1,1,ge,SL_Sounds/ge.wav,,,,,,,
,,,,,,,,,,,,,,,,,,60ffcba4730586b1982c5bf5,2021-08-05_22h11.39.251,Agingstudy,2020.2.10,MacIntel,60,,,,,,,,,,,,,,,,,,0,67,67,67,1,2,me,SL_Sounds/me.wav,,,,,,,
,,,,,,,,,,,,,,,,,,60ffcba4730586b1982c5bf5,2021-08-05_22h11.39.251,Agingstudy,2020.2.10,MacIntel,60,,,,,,,,,,,,,,,,,,0,68,68,68,1,3,re,SL_Sounds/re.wav,,,,,,,
,,,,,,,,,,,,,,,,,,60ffcba4730586b1982c5bf5,2021-08-05_22h11.39.251,Agingstudy,2020.2.10,MacIntel,60,,,,,,,,,,,,,,,,,,0,69,69,69,1,1,ti,SL_Sounds/ti.wav,,,,,,,
,,,,,,,,,,,,,,,,,,60ffcba4730586b1982c5bf5,2021-08-05_22h11.39.251,Agingstudy,2020.2.10,MacIntel,60,,,,,,,,,,,,,,,,,,0,70,70,70,1,2,su,SL_Sounds/su.wav,,,,,,,
,,,,,,,,,,,,,,,,,,60ffcba4730586b1982c5bf5,2021-08-05_22h11.39.251,Agingstudy,2020.2.10,MacIntel,60,,,,,,,,,,,,,,,,,,0,71,71,71,1,3,fe,SL_Sounds/fe.wav,,,,,,,
,,,,,,,,,,,,,,,,,,60ffcba4730586b1982c5bf5,2021-08-05_22h11.39.251,Agingstudy,2020.2.10,MacIntel,60,,,,,,,,,,,,,,,,,,0,72,72,72,1,1,pu,SL_Sounds/pu.wav,,,,,,,
,,,,,,,,,,,,,,,,,,60ffcba4730586b1982c5bf5,2021-08-05_22h11.39.251,Agingstudy,2020.2.10,MacIntel,60,,,,,,,,,,,,,,,,,,0,73,73,73,1,2,ni,SL_Sounds/ni.wav,,,,,,,
,,,,,,,,,,,,,,,,,,60ffcba4730586b1982c5bf5,2021-08-05_22h11.39.251,Agingstudy,2020.2.10,MacIntel,60,,,,,,,,,,,,,,,,,,0,74,74,74,1,3,ru,SL_Sounds/ru.wav,,,,,,,
,,,,,,,,,,,,,,,,,,60ffcba4730586b1982c5bf5,2021-08-05_22h11.39.251,Agingstudy,2020.2.10,MacIntel,60,,,,,,,,,,,,,,,,,,0,75,75,75,1,1,fu,SL_Sounds/fu.wav,,,,,,,
,,,,,,,,,,,,,,,,,,60ffcba4730586b1982c5bf5,2021-08-05_22h11.39.251,Agingstudy,2020.2.10,MacIntel,60,,,,,,,,,,,,,,,,,,0,76,76,76,1,2,ko,SL_Sounds/ko.wav,,,,,,,
,,,,,,,,,,,,,,,,,,60ffcba4730586b1982c5bf5,2021-08-05_22h11.39.251,Agingstudy,2020.2.10,MacIntel,60,,,,,,,,,,,,,,,,,,0,77,77,77,1,3,ta,SL_Sounds/ta.wav,,,,,,,
,,,,,,,,,,,,,,,,,,60ffcba4730586b1982c5bf5,2021-08-05_22h11.39.251,Agingstudy,2020.2.10,MacIntel,60,,,,,,,,,,,,,,,,,,0,78,78,78,1,1,pu,SL_Sounds/pu.wav,,,,,,,
,,,,,,,,,,,,,,,,,,60ffcba4730586b1982c5bf5,2021-08-05_22h11.39.251,Agingstudy,2020.2.10,MacIntel,60,,,,,,,,,,,,,,,,,,0,79,79,79,1,2,ni,SL_Sounds/ni.wav,,,,,,,
,,,,,,,,,,,,,,,,,,60ffcba4730586b1982c5bf5,2021-08-05_22h11.39.251,Agingstudy,2020.2.10,MacIntel,60,,,,,,,,,,,,,,,,,,0,80,80,80,1,3,ru,SL_Sounds/ru.wav,,,,,,,
,,,,,,,,,,,,,,,,,,60ffcba4730586b1982c5bf5,2021-08-05_22h11.39.251,Agingstudy,2020.2.10,MacIntel,60,,,,,,,,,,,,,,,,,,0,81,81,81,1,1,ti,SL_Sounds/ti.wav,,,,,,,
,,,,,,,,,,,,,,,,,,60ffcba4730586b1982c5bf5,2021-08-05_22h11.39.251,Agingstudy,2020.2.10,MacIntel,60,,,,,,,,,,,,,,,,,,0,82,82,82,1,2,su,SL_Sounds/su.wav,,,,,,,
,,,,,,,,,,,,,,,,,,60ffcba4730586b1982c5bf5,2021-08-05_22h11.39.251,Agingstudy,2020.2.10,MacIntel,60,,,,,,,,,,,,,,,,,,0,83,83,83,1,3,fe,SL_Sounds/fe.wav,,,,,,,
,,,,,,,,,,,,,,,,,,60ffcba4730586b1982c5bf5,2021-08-05_22h11.39.251,Agingstudy,2020.2.10,MacIntel,60,,,,,,,,,,,,,,,,,,0,84,84,84,1,1,ge,SL_Sounds/ge.wav,,,,,,,
,,,,,,,,,,,,,,,,,,60ffcba4730586b1982c5bf5,2021-08-05_22h11.39.251,Agingstudy,2020.2.10,MacIntel,60,,,,,,,,,,,,,,,,,,0,85,85,85,1,2,me,SL_Sounds/me.wav,,,,,,,
,,,,,,,,,,,,,,,,,,60ffcba4730586b1982c5bf5,2021-08-05_22h11.39.251,Agingstudy,2020.2.10,MacIntel,60,,,,,,,,,,,,,,,,,,0,86,86,86,1,3,re,SL_Sounds/re.wav,,,,,,,
,,,,,,,,,,,,,,,,,,60ffcba4730586b1982c5bf5,2021-08-05_22h11.39.251,Agingstudy,2020.2.10,MacIntel,60,,,,,,,,,,,,,,,,,,0,87,87,87,1,1,pu,SL_Sounds/pu.wav,,,,,,,
,,,,,,,,,,,,,,,,,,60ffcba4730586b1982c5bf5,2021-08-05_22h11.39.251,Agingstudy,2020.2.10,MacIntel,60,,,,,,,,,,,,,,,,,,0,88,88,88,1,2,ni,SL_Sounds/ni.wav,,,,,,,
,,,,,,,,,,,,,,,,,,60ffcba4730586b1982c5bf5,2021-08-05_22h11.39.251,Agingstudy,2020.2.10,MacIntel,60,,,,,,,,,,,,,,,,,,0,89,89,89,1,3,ru,SL_Sounds/ru.wav,,,,,,,
,,,,,,,,,,,,,,,,,,60ffcba4730586b1982c5bf5,2021-08-05_22h11.39.251,Agingstudy,2020.2.10,MacIntel,60,,,,,,,,,,,,,,,,,,0,90,90,90,1,1,fu,SL_Sounds/fu.wav,,,,,,,
,,,,,,,,,,,,,,,,,,60ffcba4730586b1982c5bf5,2021-08-05_22h11.39.251,Agingstudy,2020.2.10,MacIntel,60,,,,,,,,,,,,,,,,,,0,91,91,91,1,2,ko,SL_Sounds/ko.wav,,,,,,,
,,,,,,,,,,,,,,,,,,60ffcba4730586b1982c5bf5,2021-08-05_22h11.39.251,Agingstudy,2020.2.10,MacIntel,60,,,,,,,,,,,,,,,,,,0,92,92,92,1,3,ta,SL_Sounds/ta.wav,,,,,,,
,,,,,,,,,,,,,,,,,,60ffcba4730586b1982c5bf5,2021-08-05_22h11.39.251,Agingstudy,2020.2.10,MacIntel,60,,,,,,,,,,,,,,,,,,0,93,93,93,1,1,ti,SL_Sounds/ti.wav,,,,,,,
,,,,,,,,,,,,,,,,,,60ffcba4730586b1982c5bf5,2021-08-05_22h11.39.251,Agingstudy,2020.2.10,MacIntel,60,,,,,,,,,,,,,,,,,,0,94,94,94,1,2,su,SL_Sounds/su.wav,,,,,,,
,,,,,,,,,,,,,,,,,,60ffcba4730586b1982c5bf5,2021-08-05_22h11.39.251,Agingstudy,2020.2.10,MacIntel,60,,,,,,,,,,,,,,,,,,0,95,95,95,1,3,fe,SL_Sounds/fe.wav,,,,,,,
,,,,,,,,,,,,,,,,,,60ffcba4730586b1982c5bf5,2021-08-05_22h11.39.251,Agingstudy,2020.2.10,MacIntel,60,,,,,,,,,,,,,,,,,,0,96,96,96,1,1,fu,SL_Sounds/fu.wav,,,,,,,
,,,,,,,,,,,,,,,,,,60ffcba4730586b1982c5bf5,2021-08-05_22h11.39.251,Agingstudy,2020.2.10,MacIntel,60,,,,,,,,,,,,,,,,,,0,97,97,97,1,2,ko,SL_Sounds/ko.wav,,,,,,,
,,,,,,,,,,,,,,,,,,60ffcba4730586b1982c5bf5,2021-08-05_22h11.39.251,Agingstudy,2020.2.10,MacIntel,60,,,,,,,,,,,,,,,,,,0,98,98,98,1,3,ta,SL_Sounds/ta.wav,,,,,,,
,,,,,,,,,,,,,,,,,,60ffcba4730586b1982c5bf5,2021-08-05_22h11.39.251,Agingstudy,2020.2.10,MacIntel,60,,,,,,,,,,,,,,,,,,0,99,99,99,1,1,ge,SL_Sounds/ge.wav,,,,,,,
,,,,,,,,,,,,,,,,,,60ffcba4730586b1982c5bf5,2021-08-05_22h11.39.251,Agingstudy,2020.2.10,MacIntel,60,,,,,,,,,,,,,,,,,,0,100,100,100,1,2,me,SL_Sounds/me.wav,,,,,,,
,,,,,,,,,,,,,,,,,,60ffcba4730586b1982c5bf5,2021-08-05_22h11.39.251,Agingstudy,2020.2.10,MacIntel,60,,,,,,,,,,,,,,,,,,0,101,101,101,1,3,re,SL_Sounds/re.wav,,,,,,,
,,,,,,,,,,,,,,,,,,60ffcba4730586b1982c5bf5,2021-08-05_22h11.39.251,Agingstudy,2020.2.10,MacIntel,60,,,,,,,,,,,,,,,,,,0,102,102,102,1,1,pu,SL_Sounds/pu.wav,,,,,,,
,,,,,,,,,,,,,,,,,,60ffcba4730586b1982c5bf5,2021-08-05_22h11.39.251,Agingstudy,2020.2.10,MacIntel,60,,,,,,,,,,,,,,,,,,0,103,103,103,1,2,ni,SL_Sounds/ni.wav,,,,,,,
,,,,,,,,,,,,,,,,,,60ffcba4730586b1982c5bf5,2021-08-05_22h11.39.251,Agingstudy,2020.2.10,MacIntel,60,,,,,,,,,,,,,,,,,,0,104,104,104,1,3,ru,SL_Sounds/ru.wav,,,,,,,
,,,,,,,,,,,,,,,,,,60ffcba4730586b1982c5bf5,2021-08-05_22h11.39.251,Agingstudy,2020.2.10,MacIntel,60,,,,,,,,,,,,,,,,,,0,105,105,105,1,1,ti,SL_Sounds/ti.wav,,,,,,,
,,,,,,,,,,,,,,,,,,60ffcba4730586b1982c5bf5,2021-08-05_22h11.39.251,Agingstudy,2020.2.10,MacIntel,60,,,,,,,,,,,,,,,,,,0,106,106,106,1,2,su,SL_Sounds/su.wav,,,,,,,
,,,,,,,,,,,,,,,,,,60ffcba4730586b1982c5bf5,2021-08-05_22h11.39.251,Agingstudy,2020.2.10,MacIntel,60,,,,,,,,,,,,,,,,,,0,107,107,107,1,3,fe,SL_Sounds/fe.wav,,,,,,,
,,,,,,,,,,,,,,,,,,60ffcba4730586b1982c5bf5,2021-08-05_22h11.39.251,Agingstudy,2020.2.10,MacIntel,60,,,,,,,,,,,,,,,,,,0,108,108,108,1,1,ge,SL_Sounds/ge.wav,,,,,,,
,,,,,,,,,,,,,,,,,,60ffcba4730586b1982c5bf5,2021-08-05_22h11.39.251,Agingstudy,2020.2.10,MacIntel,60,,,,,,,,,,,,,,,,,,0,109,109,109,1,2,me,SL_Sounds/me.wav,,,,,,,
,,,,,,,,,,,,,,,,,,60ffcba4730586b1982c5bf5,2021-08-05_22h11.39.251,Agingstudy,2020.2.10,MacIntel,60,,,,,,,,,,,,,,,,,,0,110,110,110,1,3,re,SL_Sounds/re.wav,,,,,,,
,,,,,,,,,,,,,,,,,,60ffcba4730586b1982c5bf5,2021-08-05_22h11.39.251,Agingstudy,2020.2.10,MacIntel,60,,,,,,,,,,,,,,,,,,0,111,111,111,1,1,pu,SL_Sounds/pu.wav,,,,,,,
,,,,,,,,,,,,,,,,,,60ffcba4730586b1982c5bf5,2021-08-05_22h11.39.251,Agingstudy,2020.2.10,MacIntel,60,,,,,,,,,,,,,,,,,,0,112,112,112,1,2,ni,SL_Sounds/ni.wav,,,,,,,
,,,,,,,,,,,,,,,,,,60ffcba4730586b1982c5bf5,2021-08-05_22h11.39.251,Agingstudy,2020.2.10,MacIntel,60,,,,,,,,,,,,,,,,,,0,113,113,113,1,3,ru,SL_Sounds/ru.wav,,,,,,,
,,,,,,,,,,,,,,,,,,60ffcba4730586b1982c5bf5,2021-08-05_22h11.39.251,Agingstudy,2020.2.10,MacIntel,60,,,,,,,,,,,,,,,,,,0,114,114,114,1,1,fu,SL_Sounds/fu.wav,,,,,,,
,,,,,,,,,,,,,,,,,,60ffcba4730586b1982c5bf5,2021-08-05_22h11.39.251,Agingstudy,2020.2.10,MacIntel,60,,,,,,,,,,,,,,,,,,0,115,115,115,1,2,ko,SL_Sounds/ko.wav,,,,,,,
