Welcome0Continue.keys,Welcome0Continue.rt,SoundCheckBegin.keys,SoundCheckBegin.rt,SoundCheckEndKey.keys,SoundCheckEndKey.rt,HeadphoneContinueKey.keys,HeadphoneContinueKey.rt,CheckResp.keys,CheckResp.corr,CheckResp.rt,HeadphoneLoop.thisRepN,HeadphoneLoop.thisTrialN,HeadphoneLoop.thisN,HeadphoneLoop.thisIndex,HeadphoneLoop.ran,File,Correct,participant,date,expName,psychopyVersion,OS,frameRate,ContinueKey8.keys,ContinueKey8.rt,MSTWelcomeContKey.keys,MSTWelcomeContKey.rt,Condition,MSTTrainIntroKey.keys,MSTTrainIntroKey.rt,MSTTrainKeys.keys,MSTTrainKeys.corr,MSTTrainKeys.rt,MSTTrainLoop.thisRepN,MSTTrainLoop.thisTrialN,MSTTrainLoop.thisN,MSTTrainLoop.thisIndex,MSTTrainLoop.ran,SoundFile,Type,MSTTestBeginKey.keys,MSTTestBeginKey.rt,MST_resp.keys,MST_resp.corr,MST_resp.rt,MSTPlayLoop.thisRepN,MSTPlayLoop.thisTrialN,MSTPlayLoop.thisN,MSTPlayLoop.thisIndex,MSTPlayLoop.ran,WordCorrect,Correct_type,WordType,MSTLoop.thisRepN,MSTLoop.thisTrialN,MSTLoop.thisN,MSTLoop.thisIndex,MSTLoop.ran,EndAllKey.keys,EndAllKey.rt,FeedbackResp.text
space,2.1352,space,8.2027,space,7.8008,space,10.0106,3,1,4.1321,0,0,0,4,1,Headphone/t3_1.wav,3,6103920464ce8dfb2b5cf7b0,2021-07-31_19h32.05.284,Agingstudy,2020.2.10,MacIntel,60,,,,,,,,,,,,,,,,,,,,,,,,,,,,,,,,,,,,,,
,,,,,,,,1,1,1.9227,0,1,1,0,1,Headphone/t1_1.wav,1,6103920464ce8dfb2b5cf7b0,2021-07-31_19h32.05.284,Agingstudy,2020.2.10,MacIntel,60,,,,,,,,,,,,,,,,,,,,,,,,,,,,,,,,,,,,,,
,,,,,,,,3,1,0.8841,0,2,2,5,1,Headphone/t3_2.wav,3,6103920464ce8dfb2b5cf7b0,2021-07-31_19h32.05.284,Agingstudy,2020.2.10,MacIntel,60,,,,,,,,,,,,,,,,,,,,,,,,,,,,,,,,,,,,,,
,,,,,,,,2,1,0.8169,0,3,3,2,1,Headphone/t2_1.wav,2,6103920464ce8dfb2b5cf7b0,2021-07-31_19h32.05.284,Agingstudy,2020.2.10,MacIntel,60,,,,,,,,,,,,,,,,,,,,,,,,,,,,,,,,,,,,,,
,,,,,,,,1,1,0.9175,0,4,4,1,1,Headphone/t1_2.wav,1,6103920464ce8dfb2b5cf7b0,2021-07-31_19h32.05.284,Agingstudy,2020.2.10,MacIntel,60,,,,,,,,,,,,,,,,,,,,,,,,,,,,,,,,,,,,,,
,,,,,,,,2,1,0.569,0,5,5,3,1,Headphone/t2_2.wav,2,6103920464ce8dfb2b5cf7b0,2021-07-31_19h32.05.284,Agingstudy,2020.2.10,MacIntel,60,,,,,,,,,,,,,,,,,,,,,,,,,,,,,,,,,,,,,,
,,,,,,,,,,,,,,,,,2,6103920464ce8dfb2b5cf7b0,2021-07-31_19h32.05.284,Agingstudy,2020.2.10,MacIntel,60,space,16.4396,space,7.6306,1,space,4.4493,2,1,5.3341,0,0,0,0,1,Training/FO_YI_LAY.wav,NEW,,,,,,,,,,,,,,,,,,,,,
,,,,,,,,,,,,,,,,,1,6103920464ce8dfb2b5cf7b0,2021-07-31_19h32.05.284,Agingstudy,2020.2.10,MacIntel,60,,,,,,,,1,1,5.9487,0,1,1,1,1,Training/FO_YI_LAY.wav,OLD,,,,,,,,,,,,,,,,,,,,,
,,,,,,,,,,,,,,,,,2,6103920464ce8dfb2b5cf7b0,2021-07-31_19h32.05.284,Agingstudy,2020.2.10,MacIntel,60,,,,,,,,2,1,6.2677,0,2,2,2,1,Training/YO_BU_JAY.wav,NEW,,,,,,,,,,,,,,,,,,,,,
,,,,,,,,,,,,,,,,,2,6103920464ce8dfb2b5cf7b0,2021-07-31_19h32.05.284,Agingstudy,2020.2.10,MacIntel,60,,,,,,,,2,1,5.4861,0,3,3,3,1,Training/JAY_YO_BU.wav,SIMILAR,,,,,,,,,,,,,,,,,,,,,
,,,,,,,,,,,,,,,,,1,6103920464ce8dfb2b5cf7b0,2021-07-31_19h32.05.284,Agingstudy,2020.2.10,MacIntel,60,,,,,,,,1,1,3.2338,0,4,4,4,1,Training/FO_YI_LAY.wav,OLD,,,,,,,,,,,,,,,,,,,,,
,,,,,,,,,,,,,,,,TestWords/LU_HAI_BO.wav,,6103920464ce8dfb2b5cf7b0,2021-07-31_19h32.05.284,Agingstudy,2020.2.10,MacIntel,60,,,,,B,,,,,,,,,,,,,space,6.4658,2,1,6.4908,0,0,0,0,1,2,NEW,NEW,,,,,,,,
,,,,,,,,,,,,,,,,TestWords/CHU_LA_PAY.wav,,6103920464ce8dfb2b5cf7b0,2021-07-31_19h32.05.284,Agingstudy,2020.2.10,MacIntel,60,,,,,B,,,,,,,,,,,,,,,2,1,7.2306,0,1,1,1,1,2,NEW,NEW,,,,,,,,
,,,,,,,,,,,,,,,,TestWords/RAY_PA_TI.wav,,6103920464ce8dfb2b5cf7b0,2021-07-31_19h32.05.284,Agingstudy,2020.2.10,MacIntel,60,,,,,B,,,,,,,,,,,,,,,2,1,1.5174,0,2,2,2,1,2,NEW,NEW,,,,,,,,
,,,,,,,,,,,,,,,,TestWords/DA_CHU_VAI.wav,,6103920464ce8dfb2b5cf7b0,2021-07-31_19h32.05.284,Agingstudy,2020.2.10,MacIntel,60,,,,,B,,,,,,,,,,,,,,,1,0,6.2194,0,3,3,3,1,2,NEW,NEW,,,,,,,,
,,,,,,,,,,,,,,,,TestWords/DAY_PU_MO.wav,,6103920464ce8dfb2b5cf7b0,2021-07-31_19h32.05.284,Agingstudy,2020.2.10,MacIntel,60,,,,,B,,,,,,,,,,,,,,,2,1,5.2195,0,4,4,4,1,2,NEW,NEW,,,,,,,,
,,,,,,,,,,,,,,,,TestWords/DAI_RU_CHI.wav,,6103920464ce8dfb2b5cf7b0,2021-07-31_19h32.05.284,Agingstudy,2020.2.10,MacIntel,60,,,,,B,,,,,,,,,,,,,,,1,0,3.1427,0,5,5,5,1,2,NEW,NEW,,,,,,,,
,,,,,,,,,,,,,,,,TestWords/RAI_ZO_FU.wav,,6103920464ce8dfb2b5cf7b0,2021-07-31_19h32.05.284,Agingstudy,2020.2.10,MacIntel,60,,,,,B,,,,,,,,,,,,,,,1,0,0.7804,0,6,6,6,1,2,NEW,NEW,,,,,,,,
,,,,,,,,,,,,,,,,TestWords/HO_NAY_VA.wav,,6103920464ce8dfb2b5cf7b0,2021-07-31_19h32.05.284,Agingstudy,2020.2.10,MacIntel,60,,,,,B,,,,,,,,,,,,,,,2,1,0.5574,0,7,7,7,1,2,NEW,NEW,,,,,,,,
,,,,,,,,,,,,,,,,TestWords/RAY_PA_TI.wav,,6103920464ce8dfb2b5cf7b0,2021-07-31_19h32.05.284,Agingstudy,2020.2.10,MacIntel,60,,,,,B,,,,,,,,,,,,,,,1,1,0.6202,0,8,8,8,1,1,OLD,OLD,,,,,,,,
,,,,,,,,,,,,,,,,TestWords/DAY_MO_PU.wav,,6103920464ce8dfb2b5cf7b0,2021-07-31_19h32.05.284,Agingstudy,2020.2.10,MacIntel,60,,,,,B,,,,,,,,,,,,,,,1,0,1.3683,0,9,9,9,1,2,NEW,SIMILAR,,,,,,,,
,,,,,,,,,,,,,,,,TestWords/TAI_SA_GI.wav,,6103920464ce8dfb2b5cf7b0,2021-07-31_19h32.05.284,Agingstudy,2020.2.10,MacIntel,60,,,,,B,,,,,,,,,,,,,,,2,1,0.907,0,10,10,10,1,2,NEW,NEW,,,,,,,,
,,,,,,,,,,,,,,,,TestWords/DAI_RU_CHI.wav,,6103920464ce8dfb2b5cf7b0,2021-07-31_19h32.05.284,Agingstudy,2020.2.10,MacIntel,60,,,,,B,,,,,,,,,,,,,,,1,1,1.4137,0,11,11,11,1,1,OLD,OLD,,,,,,,,
,,,,,,,,,,,,,,,,TestWords/GA_MU_ZI.wav,,6103920464ce8dfb2b5cf7b0,2021-07-31_19h32.05.284,Agingstudy,2020.2.10,MacIntel,60,,,,,B,,,,,,,,,,,,,,,2,1,0.7195,0,12,12,12,1,2,NEW,NEW,,,,,,,,
,,,,,,,,,,,,,,,,TestWords/ZO_RAI_FU.wav,,6103920464ce8dfb2b5cf7b0,2021-07-31_19h32.05.284,Agingstudy,2020.2.10,MacIntel,60,,,,,B,,,,,,,,,,,,,,,1,0,1.1836,0,13,13,13,1,2,NEW,SIMILAR,,,,,,,,
,,,,,,,,,,,,,,,,TestWords/RAY_PA_TI.wav,,6103920464ce8dfb2b5cf7b0,2021-07-31_19h32.05.284,Agingstudy,2020.2.10,MacIntel,60,,,,,B,,,,,,,,,,,,,,,1,1,1.2235,0,14,14,14,1,1,OLD,OLD,,,,,,,,
,,,,,,,,,,,,,,,,TestWords/FI_GU_CHA.wav,,6103920464ce8dfb2b5cf7b0,2021-07-31_19h32.05.284,Agingstudy,2020.2.10,MacIntel,60,,,,,B,,,,,,,,,,,,,,,2,1,0.4659,0,15,15,15,1,2,NEW,NEW,,,,,,,,
,,,,,,,,,,,,,,,,TestWords/MO_DAY_PU.wav,,6103920464ce8dfb2b5cf7b0,2021-07-31_19h32.05.284,Agingstudy,2020.2.10,MacIntel,60,,,,,B,,,,,,,,,,,,,,,1,0,0.5149,0,16,16,16,1,2,NEW,SIMILAR,,,,,,,,
,,,,,,,,,,,,,,,,TestWords/GI_SA_TAI.wav,,6103920464ce8dfb2b5cf7b0,2021-07-31_19h32.05.284,Agingstudy,2020.2.10,MacIntel,60,,,,,B,,,,,,,,,,,,,,,2,1,1.4832,0,17,17,17,1,2,NEW,SIMILAR,,,,,,,,
,,,,,,,,,,,,,,,,TestWords/FU_RAI_ZO.wav,,6103920464ce8dfb2b5cf7b0,2021-07-31_19h32.05.284,Agingstudy,2020.2.10,MacIntel,60,,,,,B,,,,,,,,,,,,,,,2,1,1.8205,0,18,18,18,1,2,NEW,SIMILAR,,,,,,,,
,,,,,,,,,,,,,,,,TestWords/DAI_RU_CHI.wav,,6103920464ce8dfb2b5cf7b0,2021-07-31_19h32.05.284,Agingstudy,2020.2.10,MacIntel,60,,,,,B,,,,,,,,,,,,,,,1,1,0.3366,0,19,19,19,1,1,OLD,OLD,,,,,,,,
,,,,,,,,,,,,,,,,TestWords/KO_SU_FAI.wav,,6103920464ce8dfb2b5cf7b0,2021-07-31_19h32.05.284,Agingstudy,2020.2.10,MacIntel,60,,,,,B,,,,,,,,,,,,,,,1,0,0.5256,0,20,20,20,1,2,NEW,NEW,,,,,,,,
,,,,,,,,,,,,,,,,TestWords/GA_MU_ZI.wav,,6103920464ce8dfb2b5cf7b0,2021-07-31_19h32.05.284,Agingstudy,2020.2.10,MacIntel,60,,,,,B,,,,,,,,,,,,,,,1,1,0.2701,0,21,21,21,1,1,OLD,OLD,,,,,,,,
,,,,,,,,,,,,,,,,TestWords/RAY_PA_TI.wav,,6103920464ce8dfb2b5cf7b0,2021-07-31_19h32.05.284,Agingstudy,2020.2.10,MacIntel,60,,,,,B,,,,,,,,,,,,,,,1,1,0.601,0,22,22,22,1,1,OLD,OLD,,,,,,,,
,,,,,,,,,,,,,,,,TestWords/PU_DAY_MO.wav,,6103920464ce8dfb2b5cf7b0,2021-07-31_19h32.05.284,Agingstudy,2020.2.10,MacIntel,60,,,,,B,,,,,,,,,,,,,,,2,1,0.4842,0,23,23,23,1,2,NEW,SIMILAR,,,,,,,,
,,,,,,,,,,,,,,,,TestWords/GI_TAI_SA.wav,,6103920464ce8dfb2b5cf7b0,2021-07-31_19h32.05.284,Agingstudy,2020.2.10,MacIntel,60,,,,,B,,,,,,,,,,,,,,,1,0,1.1364,0,24,24,24,1,2,NEW,SIMILAR,,,,,,,,
,,,,,,,,,,,,,,,,TestWords/KO_SU_FAI.wav,,6103920464ce8dfb2b5cf7b0,2021-07-31_19h32.05.284,Agingstudy,2020.2.10,MacIntel,60,,,,,B,,,,,,,,,,,,,,,1,1,0.6832,0,25,25,25,1,1,OLD,OLD,,,,,,,,
,,,,,,,,,,,,,,,,TestWords/FU_ZO_RAI.wav,,6103920464ce8dfb2b5cf7b0,2021-07-31_19h32.05.284,Agingstudy,2020.2.10,MacIntel,60,,,,,B,,,,,,,,,,,,,,,1,0,0.3795,0,26,26,26,1,2,NEW,SIMILAR,,,,,,,,
,,,,,,,,,,,,,,,,TestWords/DAI_RU_CHI.wav,,6103920464ce8dfb2b5cf7b0,2021-07-31_19h32.05.284,Agingstudy,2020.2.10,MacIntel,60,,,,,B,,,,,,,,,,,,,,,1,1,0.6014,0,27,27,27,1,1,OLD,OLD,,,,,,,,
,,,,,,,,,,,,,,,,TestWords/RAY_PA_TI.wav,,6103920464ce8dfb2b5cf7b0,2021-07-31_19h32.05.284,Agingstudy,2020.2.10,MacIntel,60,,,,,B,,,,,,,,,,,,,,,1,1,0.991,0,28,28,28,1,1,OLD,OLD,,,,,,,,
,,,,,,,,,,,,,,,,TestWords/GA_MU_ZI.wav,,6103920464ce8dfb2b5cf7b0,2021-07-31_19h32.05.284,Agingstudy,2020.2.10,MacIntel,60,,,,,B,,,,,,,,,,,,,,,2,0,1.7044,0,29,29,29,1,1,OLD,OLD,,,,,,,,
,,,,,,,,,,,,,,,,TestWords/WAI_VU_NA.wav,,6103920464ce8dfb2b5cf7b0,2021-07-31_19h32.05.284,Agingstudy,2020.2.10,MacIntel,60,,,,,B,,,,,,,,,,,,,,,2,1,0.684,0,30,30,30,1,2,NEW,NEW,,,,,,,,
,,,,,,,,,,,,,,,,TestWords/SA_TAI_GI.wav,,6103920464ce8dfb2b5cf7b0,2021-07-31_19h32.05.284,Agingstudy,2020.2.10,MacIntel,60,,,,,B,,,,,,,,,,,,,,,1,0,0.7023,0,31,31,31,1,2,NEW,SIMILAR,,,,,,,,
,,,,,,,,,,,,,,,,TestWords/PU_MO_DAY.wav,,6103920464ce8dfb2b5cf7b0,2021-07-31_19h32.05.284,Agingstudy,2020.2.10,MacIntel,60,,,,,B,,,,,,,,,,,,,,,2,1,1.837,0,32,32,32,1,2,NEW,SIMILAR,,,,,,,,
,,,,,,,,,,,,,,,,TestWords/KO_SU_FAI.wav,,6103920464ce8dfb2b5cf7b0,2021-07-31_19h32.05.284,Agingstudy,2020.2.10,MacIntel,60,,,,,B,,,,,,,,,,,,,,,1,1,0.6007,0,33,33,33,1,1,OLD,OLD,,,,,,,,
,,,,,,,,,,,,,,,,TestWords/RAI_FU_ZO.wav,,6103920464ce8dfb2b5cf7b0,2021-07-31_19h32.05.284,Agingstudy,2020.2.10,MacIntel,60,,,,,B,,,,,,,,,,,,,,,2,1,0.6908,0,34,34,34,1,2,NEW,SIMILAR,,,,,,,,
,,,,,,,,,,,,,,,,TestWords/KAI_LAY_TA.wav,,6103920464ce8dfb2b5cf7b0,2021-07-31_19h32.05.284,Agingstudy,2020.2.10,MacIntel,60,,,,,B,,,,,,,,,,,,,,,2,1,0.5882,0,35,35,35,1,2,NEW,NEW,,,,,,,,
,,,,,,,,,,,,,,,,TestWords/RAY_PA_TI.wav,,6103920464ce8dfb2b5cf7b0,2021-07-31_19h32.05.284,Agingstudy,2020.2.10,MacIntel,60,,,,,B,,,,,,,,,,,,,,,1,1,0.2993,0,36,36,36,1,1,OLD,OLD,,,,,,,,
,,,,,,,,,,,,,,,,TestWords/WAI_NA_VU.wav,,6103920464ce8dfb2b5cf7b0,2021-07-31_19h32.05.284,Agingstudy,2020.2.10,MacIntel,60,,,,,B,,,,,,,,,,,,,,,2,1,0.6068,0,37,37,37,1,2,NEW,SIMILAR,,,,,,,,
,,,,,,,,,,,,,,,,TestWords/GA_MU_ZI.wav,,6103920464ce8dfb2b5cf7b0,2021-07-31_19h32.05.284,Agingstudy,2020.2.10,MacIntel,60,,,,,B,,,,,,,,,,,,,,,1,1,0.5503,0,38,38,38,1,1,OLD,OLD,,,,,,,,
,,,,,,,,,,,,,,,,TestWords/MO_PU_DAY.wav,,6103920464ce8dfb2b5cf7b0,2021-07-31_19h32.05.284,Agingstudy,2020.2.10,MacIntel,60,,,,,B,,,,,,,,,,,,,,,1,0,1.2005,0,39,39,39,1,2,NEW,SIMILAR,,,,,,,,
,,,,,,,,,,,,,,,,TestWords/DAI_RU_CHI.wav,,6103920464ce8dfb2b5cf7b0,2021-07-31_19h32.05.284,Agingstudy,2020.2.10,MacIntel,60,,,,,B,,,,,,,,,,,,,,,1,1,0.5739,0,40,40,40,1,1,OLD,OLD,,,,,,,,
,,,,,,,,,,,,,,,,TestWords/SA_GI_TAI.wav,,6103920464ce8dfb2b5cf7b0,2021-07-31_19h32.05.284,Agingstudy,2020.2.10,MacIntel,60,,,,,B,,,,,,,,,,,,,,,1,0,0.7332,0,41,41,41,1,2,NEW,SIMILAR,,,,,,,,
,,,,,,,,,,,,,,,,TestWords/KO_SU_FAI.wav,,6103920464ce8dfb2b5cf7b0,2021-07-31_19h32.05.284,Agingstudy,2020.2.10,MacIntel,60,,,,,B,,,,,,,,,,,,,,,2,0,0.3161,0,42,42,42,1,1,OLD,OLD,,,,,,,,
,,,,,,,,,,,,,,,,TestWords/ZO_FU_RAI.wav,,6103920464ce8dfb2b5cf7b0,2021-07-31_19h32.05.284,Agingstudy,2020.2.10,MacIntel,60,,,,,B,,,,,,,,,,,,,,,2,1,0.7683,0,43,43,43,1,2,NEW,SIMILAR,,,,,,,,
,,,,,,,,,,,,,,,,TestWords/KAI_LAY_TA.wav,,6103920464ce8dfb2b5cf7b0,2021-07-31_19h32.05.284,Agingstudy,2020.2.10,MacIntel,60,,,,,B,,,,,,,,,,,,,,,2,0,1.4333,0,44,44,44,1,1,OLD,OLD,,,,,,,,
,,,,,,,,,,,,,,,,TestWords/RAY_PA_TI.wav,,6103920464ce8dfb2b5cf7b0,2021-07-31_19h32.05.284,Agingstudy,2020.2.10,MacIntel,60,,,,,B,,,,,,,,,,,,,,,1,1,0.2007,0,45,45,45,1,1,OLD,OLD,,,,,,,,
,,,,,,,,,,,,,,,,TestWords/DAI_RU_CHI.wav,,6103920464ce8dfb2b5cf7b0,2021-07-31_19h32.05.284,Agingstudy,2020.2.10,MacIntel,60,,,,,B,,,,,,,,,,,,,,,1,1,0.5163,0,46,46,46,1,1,OLD,OLD,,,,,,,,
,,,,,,,,,,,,,,,,TestWords/VU_NA_WAI.wav,,6103920464ce8dfb2b5cf7b0,2021-07-31_19h32.05.284,Agingstudy,2020.2.10,MacIntel,60,,,,,B,,,,,,,,,,,,,,,1,0,0.3341,0,47,47,47,1,2,NEW,SIMILAR,,,,,,,,
,,,,,,,,,,,,,,,,TestWords/TAI_GI_SA.wav,,6103920464ce8dfb2b5cf7b0,2021-07-31_19h32.05.284,Agingstudy,2020.2.10,MacIntel,60,,,,,B,,,,,,,,,,,,,,,1,0,0.5736,0,48,48,48,1,2,NEW,SIMILAR,,,,,,,,
,,,,,,,,,,,,,,,,TestWords/GA_MU_ZI.wav,,6103920464ce8dfb2b5cf7b0,2021-07-31_19h32.05.284,Agingstudy,2020.2.10,MacIntel,60,,,,,B,,,,,,,,,,,,,,,1,1,0.2236,0,49,49,49,1,1,OLD,OLD,,,,,,,,
,,,,,,,,,,,,,,,,TestWords/KO_SU_FAI.wav,,6103920464ce8dfb2b5cf7b0,2021-07-31_19h32.05.284,Agingstudy,2020.2.10,MacIntel,60,,,,,B,,,,,,,,,,,,,,,2,0,0.62,0,50,50,50,1,1,OLD,OLD,,,,,,,,
,,,,,,,,,,,,,,,,TestWords/KAI_LAY_TA.wav,,6103920464ce8dfb2b5cf7b0,2021-07-31_19h32.05.284,Agingstudy,2020.2.10,MacIntel,60,,,,,B,,,,,,,,,,,,,,,1,1,0.358,0,51,51,51,1,1,OLD,OLD,,,,,,,,
,,,,,,,,,,,,,,,,TestWords/HA_SI_JAI.wav,,6103920464ce8dfb2b5cf7b0,2021-07-31_19h32.05.284,Agingstudy,2020.2.10,MacIntel,60,,,,,B,,,,,,,,,,,,,,,2,1,0.8202,0,52,52,52,1,2,NEW,NEW,,,,,,,,
,,,,,,,,,,,,,,,,TestWords/RAY_PA_TI.wav,,6103920464ce8dfb2b5cf7b0,2021-07-31_19h32.05.284,Agingstudy,2020.2.10,MacIntel,60,,,,,B,,,,,,,,,,,,,,,1,1,0.3037,0,53,53,53,1,1,OLD,OLD,,,,,,,,
,,,,,,,,,,,,,,,,TestWords/VU_WAI_NA.wav,,6103920464ce8dfb2b5cf7b0,2021-07-31_19h32.05.284,Agingstudy,2020.2.10,MacIntel,60,,,,,B,,,,,,,,,,,,,,,1,0,1.2898,0,54,54,54,1,2,NEW,SIMILAR,,,,,,,,
,,,,,,,,,,,,,,,,TestWords/DAI_RU_CHI.wav,,6103920464ce8dfb2b5cf7b0,2021-07-31_19h32.05.284,Agingstudy,2020.2.10,MacIntel,60,,,,,B,,,,,,,,,,,,,,,1,1,0.1379,0,55,55,55,1,1,OLD,OLD,,,,,,,,
,,,,,,,,,,,,,,,,TestWords/GA_MU_ZI.wav,,6103920464ce8dfb2b5cf7b0,2021-07-31_19h32.05.284,Agingstudy,2020.2.10,MacIntel,60,,,,,B,,,,,,,,,,,,,,,1,1,0.0174,0,56,56,56,1,1,OLD,OLD,,,,,,,,
,,,,,,,,,,,,,,,,TestWords/KAI_LAY_TA.wav,,6103920464ce8dfb2b5cf7b0,2021-07-31_19h32.05.284,Agingstudy,2020.2.10,MacIntel,60,,,,,B,,,,,,,,,,,,,,,1,1,0.0065,0,57,57,57,1,1,OLD,OLD,,,,,,,,
,,,,,,,,,,,,,,,,TestWords/NU_CHAY_SO.wav,,6103920464ce8dfb2b5cf7b0,2021-07-31_19h32.05.284,Agingstudy,2020.2.10,MacIntel,60,,,,,B,,,,,,,,,,,,,,,2,1,0.5997,0,58,58,58,1,2,NEW,NEW,,,,,,,,
,,,,,,,,,,,,,,,,TestWords/KO_SU_FAI.wav,,6103920464ce8dfb2b5cf7b0,2021-07-31_19h32.05.284,Agingstudy,2020.2.10,MacIntel,60,,,,,B,,,,,,,,,,,,,,,1,1,0.2341,0,59,59,59,1,1,OLD,OLD,,,,,,,,
,,,,,,,,,,,,,,,,TestWords/RAY_PA_TI.wav,,6103920464ce8dfb2b5cf7b0,2021-07-31_19h32.05.284,Agingstudy,2020.2.10,MacIntel,60,,,,,B,,,,,,,,,,,,,,,1,1,0.3168,0,60,60,60,1,1,OLD,OLD,,,,,,,,
,,,,,,,,,,,,,,,,TestWords/BA_KAY_LI.wav,,6103920464ce8dfb2b5cf7b0,2021-07-31_19h32.05.284,Agingstudy,2020.2.10,MacIntel,60,,,,,B,,,,,,,,,,,,,,,1,0,0.4676,0,61,61,61,1,2,NEW,NEW,,,,,,,,
,,,,,,,,,,,,,,,,TestWords/KAI_LAY_TA.wav,,6103920464ce8dfb2b5cf7b0,2021-07-31_19h32.05.284,Agingstudy,2020.2.10,MacIntel,60,,,,,B,,,,,,,,,,,,,,,1,1,0.1224,0,62,62,62,1,1,OLD,OLD,,,,,,,,
,,,,,,,,,,,,,,,,TestWords/NA_VU_WAI.wav,,6103920464ce8dfb2b5cf7b0,2021-07-31_19h32.05.284,Agingstudy,2020.2.10,MacIntel,60,,,,,B,,,,,,,,,,,,,,,1,0,0.4888,0,63,63,63,1,2,NEW,SIMILAR,,,,,,,,
,,,,,,,,,,,,,,,,TestWords/GA_MU_ZI.wav,,6103920464ce8dfb2b5cf7b0,2021-07-31_19h32.05.284,Agingstudy,2020.2.10,MacIntel,60,,,,,B,,,,,,,,,,,,,,,1,1,0.3204,0,64,64,64,1,1,OLD,OLD,,,,,,,,
,,,,,,,,,,,,,,,,TestWords/KO_SU_FAI.wav,,6103920464ce8dfb2b5cf7b0,2021-07-31_19h32.05.284,Agingstudy,2020.2.10,MacIntel,60,,,,,B,,,,,,,,,,,,,,,1,1,1.3504,0,65,65,65,1,1,OLD,OLD,,,,,,,,
,,,,,,,,,,,,,,,,TestWords/DAI_RU_CHI.wav,,6103920464ce8dfb2b5cf7b0,2021-07-31_19h32.05.284,Agingstudy,2020.2.10,MacIntel,60,,,,,B,,,,,,,,,,,,,,,1,1,0.1648,0,66,66,66,1,1,OLD,OLD,,,,,,,,
,,,,,,,,,,,,,,,,TestWords/GU_CHAI_PI.wav,,6103920464ce8dfb2b5cf7b0,2021-07-31_19h32.05.284,Agingstudy,2020.2.10,MacIntel,60,,,,,B,,,,,,,,,,,,,,,2,1,1.1889,0,67,67,67,1,2,NEW,NEW,,,,,,,,
,,,,,,,,,,,,,,,,TestWords/RAY_PA_TI.wav,,6103920464ce8dfb2b5cf7b0,2021-07-31_19h32.05.284,Agingstudy,2020.2.10,MacIntel,60,,,,,B,,,,,,,,,,,,,,,1,1,0.4335,0,68,68,68,1,1,OLD,OLD,,,,,,,,
,,,,,,,,,,,,,,,,TestWords/KAY_LI_BA.wav,,6103920464ce8dfb2b5cf7b0,2021-07-31_19h32.05.284,Agingstudy,2020.2.10,MacIntel,60,,,,,B,,,,,,,,,,,,,,,2,1,0.6372,0,69,69,69,1,2,NEW,SIMILAR,,,,,,,,
,,,,,,,,,,,,,,,,TestWords/KAI_LAY_TA.wav,,6103920464ce8dfb2b5cf7b0,2021-07-31_19h32.05.284,Agingstudy,2020.2.10,MacIntel,60,,,,,B,,,,,,,,,,,,,,,1,1,0.2717,0,70,70,70,1,1,OLD,OLD,,,,,,,,
,,,,,,,,,,,,,,,,TestWords/KO_SU_FAI.wav,,6103920464ce8dfb2b5cf7b0,2021-07-31_19h32.05.284,Agingstudy,2020.2.10,MacIntel,60,,,,,B,,,,,,,,,,,,,,,1,1,1.0494,0,71,71,71,1,1,OLD,OLD,,,,,,,,
,,,,,,,,,,,,,,,,TestWords/DAI_RU_CHI.wav,,6103920464ce8dfb2b5cf7b0,2021-07-31_19h32.05.284,Agingstudy,2020.2.10,MacIntel,60,,,,,B,,,,,,,,,,,,,,,1,1,0.4847,0,72,72,72,1,1,OLD,OLD,,,,,,,,
,,,,,,,,,,,,,,,,TestWords/NA_WAI_VU.wav,,6103920464ce8dfb2b5cf7b0,2021-07-31_19h32.05.284,Agingstudy,2020.2.10,MacIntel,60,,,,,B,,,,,,,,,,,,,,,2,1,0.3999,0,73,73,73,1,2,NEW,SIMILAR,,,,,,,,
,,,,,,,,,,,,,,,,TestWords/GA_MU_ZI.wav,,6103920464ce8dfb2b5cf7b0,2021-07-31_19h32.05.284,Agingstudy,2020.2.10,MacIntel,60,,,,,B,,,,,,,,,,,,,,,1,1,1.7415,0,74,74,74,1,1,OLD,OLD,,,,,,,,
,,,,,,,,,,,,,,,,TestWords/KAY_BA_LI.wav,,6103920464ce8dfb2b5cf7b0,2021-07-31_19h32.05.284,Agingstudy,2020.2.10,MacIntel,60,,,,,B,,,,,,,,,,,,,,,2,1,0.7521,0,75,75,75,1,2,NEW,SIMILAR,,,,,,,,
,,,,,,,,,,,,,,,,TestWords/WAI_RO_JU.wav,,6103920464ce8dfb2b5cf7b0,2021-07-31_19h32.05.284,Agingstudy,2020.2.10,MacIntel,60,,,,,B,,,,,,,,,,,,,,,2,1,0.9704,0,76,76,76,1,2,NEW,NEW,,,,,,,,
,,,,,,,,,,,,,,,,TestWords/RAY_PA_TI.wav,,6103920464ce8dfb2b5cf7b0,2021-07-31_19h32.05.284,Agingstudy,2020.2.10,MacIntel,60,,,,,B,,,,,,,,,,,,,,,1,1,0.389,0,77,77,77,1,1,OLD,OLD,,,,,,,,
,,,,,,,,,,,,,,,,TestWords/KAI_LAY_TA.wav,,6103920464ce8dfb2b5cf7b0,2021-07-31_19h32.05.284,Agingstudy,2020.2.10,MacIntel,60,,,,,B,,,,,,,,,,,,,,,1,1,0.6827,0,78,78,78,1,1,OLD,OLD,,,,,,,,
,,,,,,,,,,,,,,,,TestWords/HI_NAY_VA.wav,,6103920464ce8dfb2b5cf7b0,2021-07-31_19h32.05.284,Agingstudy,2020.2.10,MacIntel,60,,,,,B,,,,,,,,,,,,,,,1,0,0.7521,0,79,79,79,1,2,NEW,NEW,,,,,,,,
,,,,,,,,,,,,,,,,TestWords/KO_SU_FAI.wav,,6103920464ce8dfb2b5cf7b0,2021-07-31_19h32.05.284,Agingstudy,2020.2.10,MacIntel,60,,,,,B,,,,,,,,,,,,,,,2,0,0.6275,0,80,80,80,1,1,OLD,OLD,,,,,,,,
,,,,,,,,,,,,,,,,TestWords/GA_MU_ZI.wav,,6103920464ce8dfb2b5cf7b0,2021-07-31_19h32.05.284,Agingstudy,2020.2.10,MacIntel,60,,,,,B,,,,,,,,,,,,,,,1,1,0.2671,0,81,81,81,1,1,OLD,OLD,,,,,,,,
,,,,,,,,,,,,,,,,TestWords/KAI_LAY_TA.wav,,6103920464ce8dfb2b5cf7b0,2021-07-31_19h32.05.284,Agingstudy,2020.2.10,MacIntel,60,,,,,B,,,,,,,,,,,,,,,1,1,0.2342,0,82,82,82,1,1,OLD,OLD,,,,,,,,
,,,,,,,,,,,,,,,,TestWords/LI_BA_KAY.wav,,6103920464ce8dfb2b5cf7b0,2021-07-31_19h32.05.284,Agingstudy,2020.2.10,MacIntel,60,,,,,B,,,,,,,,,,,,,,,2,1,0.5001,0,83,83,83,1,2,NEW,SIMILAR,,,,,,,,
,,,,,,,,,,,,,,,,TestWords/DAI_RU_CHI.wav,,6103920464ce8dfb2b5cf7b0,2021-07-31_19h32.05.284,Agingstudy,2020.2.10,MacIntel,60,,,,,B,,,,,,,,,,,,,,,1,1,0.4371,0,84,84,84,1,1,OLD,OLD,,,,,,,,
,,,,,,,,,,,,,,,,TestWords/KO_SU_FAI.wav,,6103920464ce8dfb2b5cf7b0,2021-07-31_19h32.05.284,Agingstudy,2020.2.10,MacIntel,60,,,,,B,,,,,,,,,,,,,,,1,1,0.1855,0,85,85,85,1,1,OLD,OLD,,,,,,,,
,,,,,,,,,,,,,,,,TestWords/NO_WA_BAY.wav,,6103920464ce8dfb2b5cf7b0,2021-07-31_19h32.05.284,Agingstudy,2020.2.10,MacIntel,60,,,,,B,,,,,,,,,,,,,,,2,1,1.1529,0,86,86,86,1,2,NEW,NEW,,,,,,,,
,,,,,,,,,,,,,,,,TestWords/KAI_LAY_TA.wav,,6103920464ce8dfb2b5cf7b0,2021-07-31_19h32.05.284,Agingstudy,2020.2.10,MacIntel,60,,,,,B,,,,,,,,,,,,,,,1,1,0.2675,0,87,87,87,1,1,OLD,OLD,,,,,,,,
,,,,,,,,,,,,,,,,TestWords/GA_MU_ZI.wav,,6103920464ce8dfb2b5cf7b0,2021-07-31_19h32.05.284,Agingstudy,2020.2.10,MacIntel,60,,,,,B,,,,,,,,,,,,,,,1,1,2.2025,0,88,88,88,1,1,OLD,OLD,,,,,,,,
,,,,,,,,,,,,,,,,TestWords/DAI_RU_CHI.wav,,6103920464ce8dfb2b5cf7b0,2021-07-31_19h32.05.284,Agingstudy,2020.2.10,MacIntel,60,,,,,B,,,,,,,,,,,,,,,1,1,0.4326,0,89,89,89,1,1,OLD,OLD,,,,,,,,
,,,,,,,,,,,,,,,,TestWords/LA_ZAY_CHAI.wav,,6103920464ce8dfb2b5cf7b0,2021-07-31_19h32.05.284,Agingstudy,2020.2.10,MacIntel,60,,,,,B,,,,,,,,,,,,,,,2,1,0.6196,0,90,90,90,1,2,NEW,NEW,,,,,,,,
,,,,,,,,,,,,,,,,TestWords/BA_LI_KAY.wav,,6103920464ce8dfb2b5cf7b0,2021-07-31_19h32.05.284,Agingstudy,2020.2.10,MacIntel,60,,,,,B,,,,,,,,,,,,,,,1,0,1.5653,0,91,91,91,1,2,NEW,SIMILAR,,,,,,,,
,,,,,,,,,,,,,,,,TestWords/PAI_LU_WA.wav,,6103920464ce8dfb2b5cf7b0,2021-07-31_19h32.05.284,Agingstudy,2020.2.10,MacIntel,60,,,,,B,,,,,,,,,,,,,,,1,0,0.5241,0,92,92,92,1,2,NEW,NEW,,,,,,,,
,,,,,,,,,,,,,,,,TestWords/KO_SU_FAI.wav,,6103920464ce8dfb2b5cf7b0,2021-07-31_19h32.05.284,Agingstudy,2020.2.10,MacIntel,60,,,,,B,,,,,,,,,,,,,,,1,1,5.2011,0,93,93,93,1,1,OLD,OLD,,,,,,,,
,,,,,,,,,,,,,,,,TestWords/KAI_LAY_TA.wav,,6103920464ce8dfb2b5cf7b0,2021-07-31_19h32.05.284,Agingstudy,2020.2.10,MacIntel,60,,,,,B,,,,,,,,,,,,,,,1,1,0.0992,0,94,94,94,1,1,OLD,OLD,,,,,,,,
,,,,,,,,,,,,,,,,TestWords/VAI_HO_LA.wav,,6103920464ce8dfb2b5cf7b0,2021-07-31_19h32.05.284,Agingstudy,2020.2.10,MacIntel,60,,,,,B,,,,,,,,,,,,,,,2,1,0.1674,0,95,95,95,1,2,NEW,NEW,,,,,,,,
,,,,,,,,,,,,,,,,TestWords/GA_MU_ZI.wav,,6103920464ce8dfb2b5cf7b0,2021-07-31_19h32.05.284,Agingstudy,2020.2.10,MacIntel,60,,,,,B,,,,,,,,,,,,,,,1,1,0.057,0,96,96,96,1,1,OLD,OLD,,,,,,,,
,,,,,,,,,,,,,,,,TestWords/LI_KAY_BA.wav,,6103920464ce8dfb2b5cf7b0,2021-07-31_19h32.05.284,Agingstudy,2020.2.10,MacIntel,60,,,,,B,,,,,,,,,,,,,,,1,0,0.499,0,97,97,97,1,2,NEW,SIMILAR,,,,,,,,
,,,,,,,,,,,,,,,,TestWords/KAI_LAY_TA.wav,,6103920464ce8dfb2b5cf7b0,2021-07-31_19h32.05.284,Agingstudy,2020.2.10,MacIntel,60,,,,,B,,,,,,,,,,,,,,,1,1,0.8012,0,98,98,98,1,1,OLD,OLD,,,,,,,,
,,,,,,,,,,,,,,,,TestWords/SI_VAI_CHU.wav,,6103920464ce8dfb2b5cf7b0,2021-07-31_19h32.05.284,Agingstudy,2020.2.10,MacIntel,60,,,,,B,,,,,,,,,,,,,,,1,0,0.9996,0,99,99,99,1,2,NEW,NEW,,,,,,,,
,,,,,,,,,,,,,,,,,,6103920464ce8dfb2b5cf7b0,2021-07-31_19h32.05.284,Agingstudy,2020.2.10,MacIntel,60,,,,,,,,,,,,,,,,,,,,,,,,,,,,,,,0,0,0,0,1,,,
,,,,,,,,,,,,,,,,,,6103920464ce8dfb2b5cf7b0,2021-07-31_19h32.05.284,Agingstudy,2020.2.10,MacIntel,60,,,,,,,,,,,,,,,,,,,,,,,,,,,,,,,,,,,,return,9.7385,
