Welcome0Continue.keys,Welcome0Continue.rt,SoundCheckBegin.keys,SoundCheckBegin.rt,SoundCheckEndKey.keys,SoundCheckEndKey.rt,HeadphoneContinueKey.keys,HeadphoneContinueKey.rt,CheckResp.keys,CheckResp.corr,CheckResp.rt,HeadphoneLoop.thisRepN,HeadphoneLoop.thisTrialN,HeadphoneLoop.thisN,HeadphoneLoop.thisIndex,HeadphoneLoop.ran,File,Correct,participant,date,expName,psychopyVersion,OS,frameRate,ContinueKey8.keys,ContinueKey8.rt,MSTWelcomeContKey.keys,MSTWelcomeContKey.rt,Condition,MSTTrainIntroKey.keys,MSTTrainIntroKey.rt,MSTTrainKeys.keys,MSTTrainKeys.corr,MSTTrainKeys.rt,MSTTrainLoop.thisRepN,MSTTrainLoop.thisTrialN,MSTTrainLoop.thisN,MSTTrainLoop.thisIndex,MSTTrainLoop.ran,SoundFile,Type,MSTTestBeginKey.keys,MSTTestBeginKey.rt,MST_resp.keys,MST_resp.corr,MST_resp.rt,MSTPlayLoop.thisRepN,MSTPlayLoop.thisTrialN,MSTPlayLoop.thisN,MSTPlayLoop.thisIndex,MSTPlayLoop.ran,WordCorrect,Correct_type,WordType,MSTLoop.thisRepN,MSTLoop.thisTrialN,MSTLoop.thisN,MSTLoop.thisIndex,MSTLoop.ran,EndAllKey.keys,EndAllKey.rt,FeedbackResp.text
space,94.0786,space,5.4866,space,5.9201,space,15.6696,2,1,4.4109,0,0,0,2,1,Headphone/t2_1.wav,2,610310f05510d2e94e1e5195,2021-08-05_23h01.22.214,Agingstudy,2020.2.10,Win32,60,,,,,,,,,,,,,,,,,,,,,,,,,,,,,,,,,,,,,,
,,,,,,,,1,1,1.3364,0,1,1,0,1,Headphone/t1_1.wav,1,610310f05510d2e94e1e5195,2021-08-05_23h01.22.214,Agingstudy,2020.2.10,Win32,60,,,,,,,,,,,,,,,,,,,,,,,,,,,,,,,,,,,,,,
,,,,,,,,2,1,1.4092,0,2,2,3,1,Headphone/t2_2.wav,2,610310f05510d2e94e1e5195,2021-08-05_23h01.22.214,Agingstudy,2020.2.10,Win32,60,,,,,,,,,,,,,,,,,,,,,,,,,,,,,,,,,,,,,,
,,,,,,,,1,1,1.3673,0,3,3,1,1,Headphone/t1_2.wav,1,610310f05510d2e94e1e5195,2021-08-05_23h01.22.214,Agingstudy,2020.2.10,Win32,60,,,,,,,,,,,,,,,,,,,,,,,,,,,,,,,,,,,,,,
,,,,,,,,3,1,1.1594,0,4,4,4,1,Headphone/t3_1.wav,3,610310f05510d2e94e1e5195,2021-08-05_23h01.22.214,Agingstudy,2020.2.10,Win32,60,,,,,,,,,,,,,,,,,,,,,,,,,,,,,,,,,,,,,,
,,,,,,,,3,1,1.1133,0,5,5,5,1,Headphone/t3_2.wav,3,610310f05510d2e94e1e5195,2021-08-05_23h01.22.214,Agingstudy,2020.2.10,Win32,60,,,,,,,,,,,,,,,,,,,,,,,,,,,,,,,,,,,,,,
,,,,,,,,,,,,,,,,,2,610310f05510d2e94e1e5195,2021-08-05_23h01.22.214,Agingstudy,2020.2.10,Win32,60,space,18.97,space,6.8855,1,space,5.1111,2,1,11.7304,0,0,0,0,1,Training/FO_YI_LAY.wav,NEW,,,,,,,,,,,,,,,,,,,,,
,,,,,,,,,,,,,,,,,1,610310f05510d2e94e1e5195,2021-08-05_23h01.22.214,Agingstudy,2020.2.10,Win32,60,,,,,,,,1,1,1.6415,0,1,1,1,1,Training/FO_YI_LAY.wav,OLD,,,,,,,,,,,,,,,,,,,,,
,,,,,,,,,,,,,,,,,2,610310f05510d2e94e1e5195,2021-08-05_23h01.22.214,Agingstudy,2020.2.10,Win32,60,,,,,,,,2,1,1.2898,0,2,2,2,1,Training/YO_BU_JAY.wav,NEW,,,,,,,,,,,,,,,,,,,,,
,,,,,,,,,,,,,,,,,2,610310f05510d2e94e1e5195,2021-08-05_23h01.22.214,Agingstudy,2020.2.10,Win32,60,,,,,,,,2,1,2.7908,0,3,3,3,1,Training/JAY_YO_BU.wav,SIMILAR,,,,,,,,,,,,,,,,,,,,,
,,,,,,,,,,,,,,,,,1,610310f05510d2e94e1e5195,2021-08-05_23h01.22.214,Agingstudy,2020.2.10,Win32,60,,,,,,,,1,1,2.9272,0,4,4,4,1,Training/FO_YI_LAY.wav,OLD,,,,,,,,,,,,,,,,,,,,,
,,,,,,,,,,,,,,,,TestWords/CHU_LA_PAY.wav,,610310f05510d2e94e1e5195,2021-08-05_23h01.22.214,Agingstudy,2020.2.10,Win32,60,,,,,D,,,,,,,,,,,,,space,5.191,2,1,2.1819,0,0,0,0,1,2,NEW,NEW,,,,,,,,
,,,,,,,,,,,,,,,,TestWords/FI_GU_CHA.wav,,610310f05510d2e94e1e5195,2021-08-05_23h01.22.214,Agingstudy,2020.2.10,Win32,60,,,,,D,,,,,,,,,,,,,,,2,1,1.891,0,1,1,1,1,2,NEW,NEW,,,,,,,,
,,,,,,,,,,,,,,,,TestWords/RAI_ZO_FU.wav,,610310f05510d2e94e1e5195,2021-08-05_23h01.22.214,Agingstudy,2020.2.10,Win32,60,,,,,D,,,,,,,,,,,,,,,2,1,1.7682,0,2,2,2,1,2,NEW,NEW,,,,,,,,
,,,,,,,,,,,,,,,,TestWords/DAI_RU_CHI.wav,,610310f05510d2e94e1e5195,2021-08-05_23h01.22.214,Agingstudy,2020.2.10,Win32,60,,,,,D,,,,,,,,,,,,,,,2,1,0.9181,0,3,3,3,1,2,NEW,NEW,,,,,,,,
,,,,,,,,,,,,,,,,TestWords/GA_MU_ZI.wav,,610310f05510d2e94e1e5195,2021-08-05_23h01.22.214,Agingstudy,2020.2.10,Win32,60,,,,,D,,,,,,,,,,,,,,,2,1,1.4173,0,4,4,4,1,2,NEW,NEW,,,,,,,,
,,,,,,,,,,,,,,,,TestWords/DA_CHU_VAI.wav,,610310f05510d2e94e1e5195,2021-08-05_23h01.22.214,Agingstudy,2020.2.10,Win32,60,,,,,D,,,,,,,,,,,,,,,2,1,1.2853,0,5,5,5,1,2,NEW,NEW,,,,,,,,
,,,,,,,,,,,,,,,,TestWords/ZO_RAI_FU.wav,,610310f05510d2e94e1e5195,2021-08-05_23h01.22.214,Agingstudy,2020.2.10,Win32,60,,,,,D,,,,,,,,,,,,,,,2,1,1.067,0,6,6,6,1,2,NEW,SIMILAR,,,,,,,,
,,,,,,,,,,,,,,,,TestWords/BA_KAY_LI.wav,,610310f05510d2e94e1e5195,2021-08-05_23h01.22.214,Agingstudy,2020.2.10,Win32,60,,,,,D,,,,,,,,,,,,,,,1,0,0.7009,0,7,7,7,1,2,NEW,NEW,,,,,,,,
,,,,,,,,,,,,,,,,TestWords/VAI_HO_LA.wav,,610310f05510d2e94e1e5195,2021-08-05_23h01.22.214,Agingstudy,2020.2.10,Win32,60,,,,,D,,,,,,,,,,,,,,,2,1,0.8664,0,8,8,8,1,2,NEW,NEW,,,,,,,,
,,,,,,,,,,,,,,,,TestWords/DAI_RU_CHI.wav,,610310f05510d2e94e1e5195,2021-08-05_23h01.22.214,Agingstudy,2020.2.10,Win32,60,,,,,D,,,,,,,,,,,,,,,1,1,0.6348,0,9,9,9,1,1,OLD,OLD,,,,,,,,
,,,,,,,,,,,,,,,,TestWords/RAY_PA_TI.wav,,610310f05510d2e94e1e5195,2021-08-05_23h01.22.214,Agingstudy,2020.2.10,Win32,60,,,,,D,,,,,,,,,,,,,,,2,1,1.0507,0,10,10,10,1,2,NEW,NEW,,,,,,,,
,,,,,,,,,,,,,,,,TestWords/NO_WA_BAY.wav,,610310f05510d2e94e1e5195,2021-08-05_23h01.22.214,Agingstudy,2020.2.10,Win32,60,,,,,D,,,,,,,,,,,,,,,2,1,1.0851,0,11,11,11,1,2,NEW,NEW,,,,,,,,
,,,,,,,,,,,,,,,,TestWords/GA_MU_ZI.wav,,610310f05510d2e94e1e5195,2021-08-05_23h01.22.214,Agingstudy,2020.2.10,Win32,60,,,,,D,,,,,,,,,,,,,,,1,1,0.3511,0,12,12,12,1,1,OLD,OLD,,,,,,,,
,,,,,,,,,,,,,,,,TestWords/WAI_VU_NA.wav,,610310f05510d2e94e1e5195,2021-08-05_23h01.22.214,Agingstudy,2020.2.10,Win32,60,,,,,D,,,,,,,,,,,,,,,1,0,0.6854,0,13,13,13,1,2,NEW,NEW,,,,,,,,
,,,,,,,,,,,,,,,,TestWords/KAY_LI_BA.wav,,610310f05510d2e94e1e5195,2021-08-05_23h01.22.214,Agingstudy,2020.2.10,Win32,60,,,,,D,,,,,,,,,,,,,,,2,1,0.668,0,14,14,14,1,2,NEW,SIMILAR,,,,,,,,
,,,,,,,,,,,,,,,,TestWords/FU_RAI_ZO.wav,,610310f05510d2e94e1e5195,2021-08-05_23h01.22.214,Agingstudy,2020.2.10,Win32,60,,,,,D,,,,,,,,,,,,,,,1,0,0.9514,0,15,15,15,1,2,NEW,SIMILAR,,,,,,,,
,,,,,,,,,,,,,,,,TestWords/KAI_LAY_TA.wav,,610310f05510d2e94e1e5195,2021-08-05_23h01.22.214,Agingstudy,2020.2.10,Win32,60,,,,,D,,,,,,,,,,,,,,,2,1,0.8887,0,16,16,16,1,2,NEW,NEW,,,,,,,,
,,,,,,,,,,,,,,,,TestWords/RAY_PA_TI.wav,,610310f05510d2e94e1e5195,2021-08-05_23h01.22.214,Agingstudy,2020.2.10,Win32,60,,,,,D,,,,,,,,,,,,,,,1,1,0.4347,0,17,17,17,1,1,OLD,OLD,,,,,,,,
,,,,,,,,,,,,,,,,TestWords/DAI_RU_CHI.wav,,610310f05510d2e94e1e5195,2021-08-05_23h01.22.214,Agingstudy,2020.2.10,Win32,60,,,,,D,,,,,,,,,,,,,,,1,1,1.2011,0,18,18,18,1,1,OLD,OLD,,,,,,,,
,,,,,,,,,,,,,,,,TestWords/WAI_NA_VU.wav,,610310f05510d2e94e1e5195,2021-08-05_23h01.22.214,Agingstudy,2020.2.10,Win32,60,,,,,D,,,,,,,,,,,,,,,1,0,0.5914,0,19,19,19,1,2,NEW,SIMILAR,,,,,,,,
,,,,,,,,,,,,,,,,TestWords/GA_MU_ZI.wav,,610310f05510d2e94e1e5195,2021-08-05_23h01.22.214,Agingstudy,2020.2.10,Win32,60,,,,,D,,,,,,,,,,,,,,,1,1,0.2553,0,20,20,20,1,1,OLD,OLD,,,,,,,,
,,,,,,,,,,,,,,,,TestWords/KAY_BA_LI.wav,,610310f05510d2e94e1e5195,2021-08-05_23h01.22.214,Agingstudy,2020.2.10,Win32,60,,,,,D,,,,,,,,,,,,,,,1,0,0.4255,0,21,21,21,1,2,NEW,SIMILAR,,,,,,,,
,,,,,,,,,,,,,,,,TestWords/KAI_LAY_TA.wav,,610310f05510d2e94e1e5195,2021-08-05_23h01.22.214,Agingstudy,2020.2.10,Win32,60,,,,,D,,,,,,,,,,,,,,,1,1,0.4672,0,22,22,22,1,1,OLD,OLD,,,,,,,,
,,,,,,,,,,,,,,,,TestWords/FU_ZO_RAI.wav,,610310f05510d2e94e1e5195,2021-08-05_23h01.22.214,Agingstudy,2020.2.10,Win32,60,,,,,D,,,,,,,,,,,,,,,1,0,0.4513,0,23,23,23,1,2,NEW,SIMILAR,,,,,,,,
,,,,,,,,,,,,,,,,TestWords/RAY_PA_TI.wav,,610310f05510d2e94e1e5195,2021-08-05_23h01.22.214,Agingstudy,2020.2.10,Win32,60,,,,,D,,,,,,,,,,,,,,,1,1,0.3605,0,24,24,24,1,1,OLD,OLD,,,,,,,,
,,,,,,,,,,,,,,,,TestWords/DAI_RU_CHI.wav,,610310f05510d2e94e1e5195,2021-08-05_23h01.22.214,Agingstudy,2020.2.10,Win32,60,,,,,D,,,,,,,,,,,,,,,1,1,0.6221,0,25,25,25,1,1,OLD,OLD,,,,,,,,
,,,,,,,,,,,,,,,,TestWords/VU_NA_WAI.wav,,610310f05510d2e94e1e5195,2021-08-05_23h01.22.214,Agingstudy,2020.2.10,Win32,60,,,,,D,,,,,,,,,,,,,,,1,0,0.4208,0,26,26,26,1,2,NEW,SIMILAR,,,,,,,,
,,,,,,,,,,,,,,,,TestWords/RAI_FU_ZO.wav,,610310f05510d2e94e1e5195,2021-08-05_23h01.22.214,Agingstudy,2020.2.10,Win32,60,,,,,D,,,,,,,,,,,,,,,1,0,1.2623,0,27,27,27,1,2,NEW,SIMILAR,,,,,,,,
,,,,,,,,,,,,,,,,TestWords/GA_MU_ZI.wav,,610310f05510d2e94e1e5195,2021-08-05_23h01.22.214,Agingstudy,2020.2.10,Win32,60,,,,,D,,,,,,,,,,,,,,,1,1,0.362,0,28,28,28,1,1,OLD,OLD,,,,,,,,
,,,,,,,,,,,,,,,,TestWords/LI_BA_KAY.wav,,610310f05510d2e94e1e5195,2021-08-05_23h01.22.214,Agingstudy,2020.2.10,Win32,60,,,,,D,,,,,,,,,,,,,,,2,1,0.8191,0,29,29,29,1,2,NEW,SIMILAR,,,,,,,,
,,,,,,,,,,,,,,,,TestWords/KAI_LAY_TA.wav,,610310f05510d2e94e1e5195,2021-08-05_23h01.22.214,Agingstudy,2020.2.10,Win32,60,,,,,D,,,,,,,,,,,,,,,1,1,1.0846,0,30,30,30,1,1,OLD,OLD,,,,,,,,
,,,,,,,,,,,,,,,,TestWords/RAY_PA_TI.wav,,610310f05510d2e94e1e5195,2021-08-05_23h01.22.214,Agingstudy,2020.2.10,Win32,60,,,,,D,,,,,,,,,,,,,,,1,1,0.4516,0,31,31,31,1,1,OLD,OLD,,,,,,,,
,,,,,,,,,,,,,,,,TestWords/VU_WAI_NA.wav,,610310f05510d2e94e1e5195,2021-08-05_23h01.22.214,Agingstudy,2020.2.10,Win32,60,,,,,D,,,,,,,,,,,,,,,1,0,0.6348,0,32,32,32,1,2,NEW,SIMILAR,,,,,,,,
,,,,,,,,,,,,,,,,TestWords/DAI_RU_CHI.wav,,610310f05510d2e94e1e5195,2021-08-05_23h01.22.214,Agingstudy,2020.2.10,Win32,60,,,,,D,,,,,,,,,,,,,,,1,1,0.467,0,33,33,33,1,1,OLD,OLD,,,,,,,,
,,,,,,,,,,,,,,,,TestWords/ZO_FU_RAI.wav,,610310f05510d2e94e1e5195,2021-08-05_23h01.22.214,Agingstudy,2020.2.10,Win32,60,,,,,D,,,,,,,,,,,,,,,1,0,1.7012,0,34,34,34,1,2,NEW,SIMILAR,,,,,,,,
,,,,,,,,,,,,,,,,TestWords/BA_LI_KAY.wav,,610310f05510d2e94e1e5195,2021-08-05_23h01.22.214,Agingstudy,2020.2.10,Win32,60,,,,,D,,,,,,,,,,,,,,,1,0,0.2682,0,35,35,35,1,2,NEW,SIMILAR,,,,,,,,
,,,,,,,,,,,,,,,,TestWords/KO_SU_FAI.wav,,610310f05510d2e94e1e5195,2021-08-05_23h01.22.214,Agingstudy,2020.2.10,Win32,60,,,,,D,,,,,,,,,,,,,,,2,1,0.6522,0,36,36,36,1,2,NEW,NEW,,,,,,,,
,,,,,,,,,,,,,,,,TestWords/KAI_LAY_TA.wav,,610310f05510d2e94e1e5195,2021-08-05_23h01.22.214,Agingstudy,2020.2.10,Win32,60,,,,,D,,,,,,,,,,,,,,,1,1,0.6027,0,37,37,37,1,1,OLD,OLD,,,,,,,,
,,,,,,,,,,,,,,,,TestWords/RAY_PA_TI.wav,,610310f05510d2e94e1e5195,2021-08-05_23h01.22.214,Agingstudy,2020.2.10,Win32,60,,,,,D,,,,,,,,,,,,,,,1,1,0.5354,0,38,38,38,1,1,OLD,OLD,,,,,,,,
,,,,,,,,,,,,,,,,TestWords/GA_MU_ZI.wav,,610310f05510d2e94e1e5195,2021-08-05_23h01.22.214,Agingstudy,2020.2.10,Win32,60,,,,,D,,,,,,,,,,,,,,,1,1,0.4379,0,39,39,39,1,1,OLD,OLD,,,,,,,,
,,,,,,,,,,,,,,,,TestWords/NA_VU_WAI.wav,,610310f05510d2e94e1e5195,2021-08-05_23h01.22.214,Agingstudy,2020.2.10,Win32,60,,,,,D,,,,,,,,,,,,,,,1,0,0.568,0,40,40,40,1,2,NEW,SIMILAR,,,,,,,,
,,,,,,,,,,,,,,,,TestWords/DAI_RU_CHI.wav,,610310f05510d2e94e1e5195,2021-08-05_23h01.22.214,Agingstudy,2020.2.10,Win32,60,,,,,D,,,,,,,,,,,,,,,1,1,0.5266,0,41,41,41,1,1,OLD,OLD,,,,,,,,
,,,,,,,,,,,,,,,,TestWords/KO_SU_FAI.wav,,610310f05510d2e94e1e5195,2021-08-05_23h01.22.214,Agingstudy,2020.2.10,Win32,60,,,,,D,,,,,,,,,,,,,,,2,0,0.6289,0,42,42,42,1,1,OLD,OLD,,,,,,,,
,,,,,,,,,,,,,,,,TestWords/NA_WAI_VU.wav,,610310f05510d2e94e1e5195,2021-08-05_23h01.22.214,Agingstudy,2020.2.10,Win32,60,,,,,D,,,,,,,,,,,,,,,1,0,1.9517,0,43,43,43,1,2,NEW,SIMILAR,,,,,,,,
,,,,,,,,,,,,,,,,TestWords/KAI_LAY_TA.wav,,610310f05510d2e94e1e5195,2021-08-05_23h01.22.214,Agingstudy,2020.2.10,Win32,60,,,,,D,,,,,,,,,,,,,,,1,1,0.2542,0,44,44,44,1,1,OLD,OLD,,,,,,,,
,,,,,,,,,,,,,,,,TestWords/SI_VAI_CHU.wav,,610310f05510d2e94e1e5195,2021-08-05_23h01.22.214,Agingstudy,2020.2.10,Win32,60,,,,,D,,,,,,,,,,,,,,,2,1,2.6887,0,45,45,45,1,2,NEW,NEW,,,,,,,,
,,,,,,,,,,,,,,,,TestWords/RAY_PA_TI.wav,,610310f05510d2e94e1e5195,2021-08-05_23h01.22.214,Agingstudy,2020.2.10,Win32,60,,,,,D,,,,,,,,,,,,,,,1,1,1.7181,0,46,46,46,1,1,OLD,OLD,,,,,,,,
,,,,,,,,,,,,,,,,TestWords/GA_MU_ZI.wav,,610310f05510d2e94e1e5195,2021-08-05_23h01.22.214,Agingstudy,2020.2.10,Win32,60,,,,,D,,,,,,,,,,,,,,,1,1,5.8713,0,47,47,47,1,1,OLD,OLD,,,,,,,,
,,,,,,,,,,,,,,,,TestWords/LI_KAY_BA.wav,,610310f05510d2e94e1e5195,2021-08-05_23h01.22.214,Agingstudy,2020.2.10,Win32,60,,,,,D,,,,,,,,,,,,,,,1,0,0.7179,0,48,48,48,1,2,NEW,SIMILAR,,,,,,,,
,,,,,,,,,,,,,,,,TestWords/KO_SU_FAI.wav,,610310f05510d2e94e1e5195,2021-08-05_23h01.22.214,Agingstudy,2020.2.10,Win32,60,,,,,D,,,,,,,,,,,,,,,2,0,0.8062,0,49,49,49,1,1,OLD,OLD,,,,,,,,
,,,,,,,,,,,,,,,,TestWords/DAI_RU_CHI.wav,,610310f05510d2e94e1e5195,2021-08-05_23h01.22.214,Agingstudy,2020.2.10,Win32,60,,,,,D,,,,,,,,,,,,,,,1,1,0.4058,0,50,50,50,1,1,OLD,OLD,,,,,,,,
,,,,,,,,,,,,,,,,TestWords/DAY_PU_MO.wav,,610310f05510d2e94e1e5195,2021-08-05_23h01.22.214,Agingstudy,2020.2.10,Win32,60,,,,,D,,,,,,,,,,,,,,,2,1,0.8601,0,51,51,51,1,2,NEW,NEW,,,,,,,,
,,,,,,,,,,,,,,,,TestWords/KAI_LAY_TA.wav,,610310f05510d2e94e1e5195,2021-08-05_23h01.22.214,Agingstudy,2020.2.10,Win32,60,,,,,D,,,,,,,,,,,,,,,1,1,0.4682,0,52,52,52,1,1,OLD,OLD,,,,,,,,
,,,,,,,,,,,,,,,,TestWords/LU_HAI_BO.wav,,610310f05510d2e94e1e5195,2021-08-05_23h01.22.214,Agingstudy,2020.2.10,Win32,60,,,,,D,,,,,,,,,,,,,,,2,1,2.6051,0,53,53,53,1,2,NEW,NEW,,,,,,,,
,,,,,,,,,,,,,,,,TestWords/RAY_PA_TI.wav,,610310f05510d2e94e1e5195,2021-08-05_23h01.22.214,Agingstudy,2020.2.10,Win32,60,,,,,D,,,,,,,,,,,,,,,1,1,0.451,0,54,54,54,1,1,OLD,OLD,,,,,,,,
,,,,,,,,,,,,,,,,TestWords/GA_MU_ZI.wav,,610310f05510d2e94e1e5195,2021-08-05_23h01.22.214,Agingstudy,2020.2.10,Win32,60,,,,,D,,,,,,,,,,,,,,,1,1,0.4202,0,55,55,55,1,1,OLD,OLD,,,,,,,,
,,,,,,,,,,,,,,,,TestWords/KO_SU_FAI.wav,,610310f05510d2e94e1e5195,2021-08-05_23h01.22.214,Agingstudy,2020.2.10,Win32,60,,,,,D,,,,,,,,,,,,,,,2,0,0.8003,0,56,56,56,1,1,OLD,OLD,,,,,,,,
,,,,,,,,,,,,,,,,TestWords/TAI_SA_GI.wav,,610310f05510d2e94e1e5195,2021-08-05_23h01.22.214,Agingstudy,2020.2.10,Win32,60,,,,,D,,,,,,,,,,,,,,,2,1,1.0391,0,57,57,57,1,2,NEW,NEW,,,,,,,,
,,,,,,,,,,,,,,,,TestWords/DAY_MO_PU.wav,,610310f05510d2e94e1e5195,2021-08-05_23h01.22.214,Agingstudy,2020.2.10,Win32,60,,,,,D,,,,,,,,,,,,,,,2,1,0.877,0,58,58,58,1,2,NEW,SIMILAR,,,,,,,,
,,,,,,,,,,,,,,,,TestWords/DAI_RU_CHI.wav,,610310f05510d2e94e1e5195,2021-08-05_23h01.22.214,Agingstudy,2020.2.10,Win32,60,,,,,D,,,,,,,,,,,,,,,1,1,0.3683,0,59,59,59,1,1,OLD,OLD,,,,,,,,
,,,,,,,,,,,,,,,,TestWords/KAI_LAY_TA.wav,,610310f05510d2e94e1e5195,2021-08-05_23h01.22.214,Agingstudy,2020.2.10,Win32,60,,,,,D,,,,,,,,,,,,,,,1,1,0.276,0,60,60,60,1,1,OLD,OLD,,,,,,,,
,,,,,,,,,,,,,,,,TestWords/LA_ZAY_CHAI.wav,,610310f05510d2e94e1e5195,2021-08-05_23h01.22.214,Agingstudy,2020.2.10,Win32,60,,,,,D,,,,,,,,,,,,,,,2,1,2.0638,0,61,61,61,1,2,NEW,NEW,,,,,,,,
,,,,,,,,,,,,,,,,TestWords/RAY_PA_TI.wav,,610310f05510d2e94e1e5195,2021-08-05_23h01.22.214,Agingstudy,2020.2.10,Win32,60,,,,,D,,,,,,,,,,,,,,,1,1,0.9398,0,62,62,62,1,1,OLD,OLD,,,,,,,,
,,,,,,,,,,,,,,,,TestWords/KO_SU_FAI.wav,,610310f05510d2e94e1e5195,2021-08-05_23h01.22.214,Agingstudy,2020.2.10,Win32,60,,,,,D,,,,,,,,,,,,,,,2,0,0.6855,0,63,63,63,1,1,OLD,OLD,,,,,,,,
,,,,,,,,,,,,,,,,TestWords/GA_MU_ZI.wav,,610310f05510d2e94e1e5195,2021-08-05_23h01.22.214,Agingstudy,2020.2.10,Win32,60,,,,,D,,,,,,,,,,,,,,,1,1,0.2224,0,64,64,64,1,1,OLD,OLD,,,,,,,,
,,,,,,,,,,,,,,,,TestWords/GI_TAI_SA.wav,,610310f05510d2e94e1e5195,2021-08-05_23h01.22.214,Agingstudy,2020.2.10,Win32,60,,,,,D,,,,,,,,,,,,,,,1,0,0.91,0,65,65,65,1,2,NEW,SIMILAR,,,,,,,,
,,,,,,,,,,,,,,,,TestWords/MO_DAY_PU.wav,,610310f05510d2e94e1e5195,2021-08-05_23h01.22.214,Agingstudy,2020.2.10,Win32,60,,,,,D,,,,,,,,,,,,,,,2,1,1.1016,0,66,66,66,1,2,NEW,SIMILAR,,,,,,,,
,,,,,,,,,,,,,,,,TestWords/KAI_LAY_TA.wav,,610310f05510d2e94e1e5195,2021-08-05_23h01.22.214,Agingstudy,2020.2.10,Win32,60,,,,,D,,,,,,,,,,,,,,,1,1,0.2779,0,67,67,67,1,1,OLD,OLD,,,,,,,,
,,,,,,,,,,,,,,,,TestWords/KO_SU_FAI.wav,,610310f05510d2e94e1e5195,2021-08-05_23h01.22.214,Agingstudy,2020.2.10,Win32,60,,,,,D,,,,,,,,,,,,,,,2,0,0.7834,0,68,68,68,1,1,OLD,OLD,,,,,,,,
,,,,,,,,,,,,,,,,TestWords/RAY_PA_TI.wav,,610310f05510d2e94e1e5195,2021-08-05_23h01.22.214,Agingstudy,2020.2.10,Win32,60,,,,,D,,,,,,,,,,,,,,,1,1,0.5033,0,69,69,69,1,1,OLD,OLD,,,,,,,,
,,,,,,,,,,,,,,,,TestWords/NU_CHAY_SO.wav,,610310f05510d2e94e1e5195,2021-08-05_23h01.22.214,Agingstudy,2020.2.10,Win32,60,,,,,D,,,,,,,,,,,,,,,2,1,0.9505,0,70,70,70,1,2,NEW,NEW,,,,,,,,
,,,,,,,,,,,,,,,,TestWords/GA_MU_ZI.wav,,610310f05510d2e94e1e5195,2021-08-05_23h01.22.214,Agingstudy,2020.2.10,Win32,60,,,,,D,,,,,,,,,,,,,,,1,1,0.2175,0,71,71,71,1,1,OLD,OLD,,,,,,,,
,,,,,,,,,,,,,,,,TestWords/DAI_RU_CHI.wav,,610310f05510d2e94e1e5195,2021-08-05_23h01.22.214,Agingstudy,2020.2.10,Win32,60,,,,,D,,,,,,,,,,,,,,,1,1,0.3965,0,72,72,72,1,1,OLD,OLD,,,,,,,,
,,,,,,,,,,,,,,,,TestWords/SA_TAI_GI.wav,,610310f05510d2e94e1e5195,2021-08-05_23h01.22.214,Agingstudy,2020.2.10,Win32,60,,,,,D,,,,,,,,,,,,,,,2,1,1.1895,0,73,73,73,1,2,NEW,SIMILAR,,,,,,,,
,,,,,,,,,,,,,,,,TestWords/PU_DAY_MO.wav,,610310f05510d2e94e1e5195,2021-08-05_23h01.22.214,Agingstudy,2020.2.10,Win32,60,,,,,D,,,,,,,,,,,,,,,1,0,0.7521,0,74,74,74,1,2,NEW,SIMILAR,,,,,,,,
,,,,,,,,,,,,,,,,TestWords/KO_SU_FAI.wav,,610310f05510d2e94e1e5195,2021-08-05_23h01.22.214,Agingstudy,2020.2.10,Win32,60,,,,,D,,,,,,,,,,,,,,,2,0,1.7884,0,75,75,75,1,1,OLD,OLD,,,,,,,,
,,,,,,,,,,,,,,,,TestWords/KAI_LAY_TA.wav,,610310f05510d2e94e1e5195,2021-08-05_23h01.22.214,Agingstudy,2020.2.10,Win32,60,,,,,D,,,,,,,,,,,,,,,1,1,0.3029,0,76,76,76,1,1,OLD,OLD,,,,,,,,
,,,,,,,,,,,,,,,,TestWords/HA_SI_JAI.wav,,610310f05510d2e94e1e5195,2021-08-05_23h01.22.214,Agingstudy,2020.2.10,Win32,60,,,,,D,,,,,,,,,,,,,,,2,1,1.1015,0,77,77,77,1,2,NEW,NEW,,,,,,,,
,,,,,,,,,,,,,,,,TestWords/RAY_PA_TI.wav,,610310f05510d2e94e1e5195,2021-08-05_23h01.22.214,Agingstudy,2020.2.10,Win32,60,,,,,D,,,,,,,,,,,,,,,1,1,0.3962,0,78,78,78,1,1,OLD,OLD,,,,,,,,
,,,,,,,,,,,,,,,,TestWords/DAI_RU_CHI.wav,,610310f05510d2e94e1e5195,2021-08-05_23h01.22.214,Agingstudy,2020.2.10,Win32,60,,,,,D,,,,,,,,,,,,,,,1,1,0.4357,0,79,79,79,1,1,OLD,OLD,,,,,,,,
,,,,,,,,,,,,,,,,TestWords/GA_MU_ZI.wav,,610310f05510d2e94e1e5195,2021-08-05_23h01.22.214,Agingstudy,2020.2.10,Win32,60,,,,,D,,,,,,,,,,,,,,,1,1,1.7546,0,80,80,80,1,1,OLD,OLD,,,,,,,,
,,,,,,,,,,,,,,,,TestWords/SA_GI_TAI.wav,,610310f05510d2e94e1e5195,2021-08-05_23h01.22.214,Agingstudy,2020.2.10,Win32,60,,,,,D,,,,,,,,,,,,,,,2,1,0.7378,0,81,81,81,1,2,NEW,SIMILAR,,,,,,,,
,,,,,,,,,,,,,,,,TestWords/KO_SU_FAI.wav,,610310f05510d2e94e1e5195,2021-08-05_23h01.22.214,Agingstudy,2020.2.10,Win32,60,,,,,D,,,,,,,,,,,,,,,2,0,2.7535,0,82,82,82,1,1,OLD,OLD,,,,,,,,
,,,,,,,,,,,,,,,,TestWords/KAI_LAY_TA.wav,,610310f05510d2e94e1e5195,2021-08-05_23h01.22.214,Agingstudy,2020.2.10,Win32,60,,,,,D,,,,,,,,,,,,,,,1,1,0.2455,0,83,83,83,1,1,OLD,OLD,,,,,,,,
,,,,,,,,,,,,,,,,TestWords/PU_MO_DAY.wav,,610310f05510d2e94e1e5195,2021-08-05_23h01.22.214,Agingstudy,2020.2.10,Win32,60,,,,,D,,,,,,,,,,,,,,,1,0,0.5515,0,84,84,84,1,2,NEW,SIMILAR,,,,,,,,
,,,,,,,,,,,,,,,,TestWords/RAY_PA_TI.wav,,610310f05510d2e94e1e5195,2021-08-05_23h01.22.214,Agingstudy,2020.2.10,Win32,60,,,,,D,,,,,,,,,,,,,,,1,1,0.4029,0,85,85,85,1,1,OLD,OLD,,,,,,,,
,,,,,,,,,,,,,,,,TestWords/HI_NAY_VA.wav,,610310f05510d2e94e1e5195,2021-08-05_23h01.22.214,Agingstudy,2020.2.10,Win32,60,,,,,D,,,,,,,,,,,,,,,2,1,1.2055,0,86,86,86,1,2,NEW,NEW,,,,,,,,
,,,,,,,,,,,,,,,,TestWords/DAI_RU_CHI.wav,,610310f05510d2e94e1e5195,2021-08-05_23h01.22.214,Agingstudy,2020.2.10,Win32,60,,,,,D,,,,,,,,,,,,,,,1,1,0.403,0,87,87,87,1,1,OLD,OLD,,,,,,,,
,,,,,,,,,,,,,,,,TestWords/TAI_GI_SA.wav,,610310f05510d2e94e1e5195,2021-08-05_23h01.22.214,Agingstudy,2020.2.10,Win32,60,,,,,D,,,,,,,,,,,,,,,1,0,0.4188,0,88,88,88,1,2,NEW,SIMILAR,,,,,,,,
,,,,,,,,,,,,,,,,TestWords/KO_SU_FAI.wav,,610310f05510d2e94e1e5195,2021-08-05_23h01.22.214,Agingstudy,2020.2.10,Win32,60,,,,,D,,,,,,,,,,,,,,,1,1,0.9338,0,89,89,89,1,1,OLD,OLD,,,,,,,,
,,,,,,,,,,,,,,,,TestWords/GA_MU_ZI.wav,,610310f05510d2e94e1e5195,2021-08-05_23h01.22.214,Agingstudy,2020.2.10,Win32,60,,,,,D,,,,,,,,,,,,,,,1,1,0.3596,0,90,90,90,1,1,OLD,OLD,,,,,,,,
,,,,,,,,,,,,,,,,TestWords/PAI_LU_WA.wav,,610310f05510d2e94e1e5195,2021-08-05_23h01.22.214,Agingstudy,2020.2.10,Win32,60,,,,,D,,,,,,,,,,,,,,,1,0,1.552,0,91,91,91,1,2,NEW,NEW,,,,,,,,
,,,,,,,,,,,,,,,,TestWords/KAI_LAY_TA.wav,,610310f05510d2e94e1e5195,2021-08-05_23h01.22.214,Agingstudy,2020.2.10,Win32,60,,,,,D,,,,,,,,,,,,,,,1,1,0.3444,0,92,92,92,1,1,OLD,OLD,,,,,,,,
,,,,,,,,,,,,,,,,TestWords/MO_PU_DAY.wav,,610310f05510d2e94e1e5195,2021-08-05_23h01.22.214,Agingstudy,2020.2.10,Win32,60,,,,,D,,,,,,,,,,,,,,,2,1,0.9622,0,93,93,93,1,2,NEW,SIMILAR,,,,,,,,
,,,,,,,,,,,,,,,,TestWords/KO_SU_FAI.wav,,610310f05510d2e94e1e5195,2021-08-05_23h01.22.214,Agingstudy,2020.2.10,Win32,60,,,,,D,,,,,,,,,,,,,,,2,0,2.5953,0,94,94,94,1,1,OLD,OLD,,,,,,,,
,,,,,,,,,,,,,,,,TestWords/GI_SA_TAI.wav,,610310f05510d2e94e1e5195,2021-08-05_23h01.22.214,Agingstudy,2020.2.10,Win32,60,,,,,D,,,,,,,,,,,,,,,2,1,1.1032,0,95,95,95,1,2,NEW,SIMILAR,,,,,,,,
,,,,,,,,,,,,,,,,TestWords/HO_NAY_VA.wav,,610310f05510d2e94e1e5195,2021-08-05_23h01.22.214,Agingstudy,2020.2.10,Win32,60,,,,,D,,,,,,,,,,,,,,,1,0,0.4731,0,96,96,96,1,2,NEW,NEW,,,,,,,,
,,,,,,,,,,,,,,,,TestWords/GU_CHAI_PI.wav,,610310f05510d2e94e1e5195,2021-08-05_23h01.22.214,Agingstudy,2020.2.10,Win32,60,,,,,D,,,,,,,,,,,,,,,2,1,1.8025,0,97,97,97,1,2,NEW,NEW,,,,,,,,
,,,,,,,,,,,,,,,,TestWords/KO_SU_FAI.wav,,610310f05510d2e94e1e5195,2021-08-05_23h01.22.214,Agingstudy,2020.2.10,Win32,60,,,,,D,,,,,,,,,,,,,,,1,1,0.6062,0,98,98,98,1,1,OLD,OLD,,,,,,,,
,,,,,,,,,,,,,,,,TestWords/WAI_RO_JU.wav,,610310f05510d2e94e1e5195,2021-08-05_23h01.22.214,Agingstudy,2020.2.10,Win32,60,,,,,D,,,,,,,,,,,,,,,2,1,1.8029,0,99,99,99,1,2,NEW,NEW,,,,,,,,
,,,,,,,,,,,,,,,,,,610310f05510d2e94e1e5195,2021-08-05_23h01.22.214,Agingstudy,2020.2.10,Win32,60,,,,,,,,,,,,,,,,,,,,,,,,,,,,,,,0,0,0,0,1,,,
,,,,,,,,,,,,,,,,,,610310f05510d2e94e1e5195,2021-08-05_23h01.22.214,Agingstudy,2020.2.10,Win32,60,,,,,,,,,,,,,,,,,,,,,,,,,,,,,,,,,,,,return,8.4423,
