Welcome0Continue.keys,Welcome0Continue.rt,SoundCheckBegin.keys,SoundCheckBegin.rt,SoundCheckEndKey.keys,SoundCheckEndKey.rt,HeadphoneContinueKey.keys,HeadphoneContinueKey.rt,CheckResp.keys,CheckResp.corr,CheckResp.rt,HeadphoneLoop.thisRepN,HeadphoneLoop.thisTrialN,HeadphoneLoop.thisN,HeadphoneLoop.thisIndex,HeadphoneLoop.ran,File,Correct,participant,date,expName,psychopyVersion,OS,frameRate,ContinueKey8.keys,ContinueKey8.rt,MSTWelcomeContKey.keys,MSTWelcomeContKey.rt,Condition,MSTTrainIntroKey.keys,MSTTrainIntroKey.rt,MSTTrainKeys.keys,MSTTrainKeys.corr,MSTTrainKeys.rt,MSTTrainLoop.thisRepN,MSTTrainLoop.thisTrialN,MSTTrainLoop.thisN,MSTTrainLoop.thisIndex,MSTTrainLoop.ran,SoundFile,Type,MSTTestBeginKey.keys,MSTTestBeginKey.rt,MST_resp.keys,MST_resp.corr,MST_resp.rt,MSTPlayLoop.thisRepN,MSTPlayLoop.thisTrialN,MSTPlayLoop.thisN,MSTPlayLoop.thisIndex,MSTPlayLoop.ran,WordCorrect,Correct_type,WordType,MSTLoop.thisRepN,MSTLoop.thisTrialN,MSTLoop.thisN,MSTLoop.thisIndex,MSTLoop.ran,EndAllKey.keys,EndAllKey.rt,FeedbackResp.text
space,39.2702,space,24.4439,space,8.7801,space,10.0556,1,1,1.3542,0,0,0,1,1,Headphone/t1_2.wav,1,611fc058dd985f97f01da09a,2021-11-01_08h07.26.330,Agingstudy,2020.2.10,Win32,60,,,,,,,,,,,,,,,,,,,,,,,,,,,,,,,,,,,,,,
,,,,,,,,3,1,0.9724,0,1,1,5,1,Headphone/t3_2.wav,3,611fc058dd985f97f01da09a,2021-11-01_08h07.26.330,Agingstudy,2020.2.10,Win32,60,,,,,,,,,,,,,,,,,,,,,,,,,,,,,,,,,,,,,,
,,,,,,,,2,1,0.7831,0,2,2,2,1,Headphone/t2_1.wav,2,611fc058dd985f97f01da09a,2021-11-01_08h07.26.330,Agingstudy,2020.2.10,Win32,60,,,,,,,,,,,,,,,,,,,,,,,,,,,,,,,,,,,,,,
,,,,,,,,1,1,0.5501,0,3,3,0,1,Headphone/t1_1.wav,1,611fc058dd985f97f01da09a,2021-11-01_08h07.26.330,Agingstudy,2020.2.10,Win32,60,,,,,,,,,,,,,,,,,,,,,,,,,,,,,,,,,,,,,,
,,,,,,,,2,1,0.7134,0,4,4,3,1,Headphone/t2_2.wav,2,611fc058dd985f97f01da09a,2021-11-01_08h07.26.330,Agingstudy,2020.2.10,Win32,60,,,,,,,,,,,,,,,,,,,,,,,,,,,,,,,,,,,,,,
,,,,,,,,3,1,0.3679,0,5,5,4,1,Headphone/t3_1.wav,3,611fc058dd985f97f01da09a,2021-11-01_08h07.26.330,Agingstudy,2020.2.10,Win32,60,,,,,,,,,,,,,,,,,,,,,,,,,,,,,,,,,,,,,,
,,,,,,,,,,,,,,,,,2,611fc058dd985f97f01da09a,2021-11-01_08h07.26.330,Agingstudy,2020.2.10,Win32,60,space,15.9648,space,7.1203,1,space,5.0852,2,1,7.3263,0,0,0,0,1,Training/FO_YI_LAY.wav,NEW,,,,,,,,,,,,,,,,,,,,,
,,,,,,,,,,,,,,,,,1,611fc058dd985f97f01da09a,2021-11-01_08h07.26.330,Agingstudy,2020.2.10,Win32,60,,,,,,,,1,1,1.2029,0,1,1,1,1,Training/FO_YI_LAY.wav,OLD,,,,,,,,,,,,,,,,,,,,,
,,,,,,,,,,,,,,,,,2,611fc058dd985f97f01da09a,2021-11-01_08h07.26.330,Agingstudy,2020.2.10,Win32,60,,,,,,,,2,1,1.1668,0,2,2,2,1,Training/YO_BU_JAY.wav,NEW,,,,,,,,,,,,,,,,,,,,,
,,,,,,,,,,,,,,,,,2,611fc058dd985f97f01da09a,2021-11-01_08h07.26.330,Agingstudy,2020.2.10,Win32,60,,,,,,,,2,1,1.824,0,3,3,3,1,Training/JAY_YO_BU.wav,SIMILAR,,,,,,,,,,,,,,,,,,,,,
,,,,,,,,,,,,,,,,,1,611fc058dd985f97f01da09a,2021-11-01_08h07.26.330,Agingstudy,2020.2.10,Win32,60,,,,,,,,1,1,1.7676,0,4,4,4,1,Training/FO_YI_LAY.wav,OLD,,,,,,,,,,,,,,,,,,,,,
,,,,,,,,,,,,,,,,TestWords/CHU_LA_PAY.wav,,611fc058dd985f97f01da09a,2021-11-01_08h07.26.330,Agingstudy,2020.2.10,Win32,60,,,,,D,,,,,,,,,,,,,space,6.2077,2,1,2.3983,0,0,0,0,1,2,NEW,NEW,,,,,,,,
,,,,,,,,,,,,,,,,TestWords/FI_GU_CHA.wav,,611fc058dd985f97f01da09a,2021-11-01_08h07.26.330,Agingstudy,2020.2.10,Win32,60,,,,,D,,,,,,,,,,,,,,,2,1,1.5107,0,1,1,1,1,2,NEW,NEW,,,,,,,,
,,,,,,,,,,,,,,,,TestWords/RAI_ZO_FU.wav,,611fc058dd985f97f01da09a,2021-11-01_08h07.26.330,Agingstudy,2020.2.10,Win32,60,,,,,D,,,,,,,,,,,,,,,2,1,0.728,0,2,2,2,1,2,NEW,NEW,,,,,,,,
,,,,,,,,,,,,,,,,TestWords/DAI_RU_CHI.wav,,611fc058dd985f97f01da09a,2021-11-01_08h07.26.330,Agingstudy,2020.2.10,Win32,60,,,,,D,,,,,,,,,,,,,,,2,1,0.6879,0,3,3,3,1,2,NEW,NEW,,,,,,,,
,,,,,,,,,,,,,,,,TestWords/GA_MU_ZI.wav,,611fc058dd985f97f01da09a,2021-11-01_08h07.26.330,Agingstudy,2020.2.10,Win32,60,,,,,D,,,,,,,,,,,,,,,2,1,0.5711,0,4,4,4,1,2,NEW,NEW,,,,,,,,
,,,,,,,,,,,,,,,,TestWords/DA_CHU_VAI.wav,,611fc058dd985f97f01da09a,2021-11-01_08h07.26.330,Agingstudy,2020.2.10,Win32,60,,,,,D,,,,,,,,,,,,,,,1,0,0.9044,0,5,5,5,1,2,NEW,NEW,,,,,,,,
,,,,,,,,,,,,,,,,TestWords/ZO_RAI_FU.wav,,611fc058dd985f97f01da09a,2021-11-01_08h07.26.330,Agingstudy,2020.2.10,Win32,60,,,,,D,,,,,,,,,,,,,,,1,0,1.0108,0,6,6,6,1,2,NEW,SIMILAR,,,,,,,,
,,,,,,,,,,,,,,,,TestWords/BA_KAY_LI.wav,,611fc058dd985f97f01da09a,2021-11-01_08h07.26.330,Agingstudy,2020.2.10,Win32,60,,,,,D,,,,,,,,,,,,,,,2,1,0.9111,0,7,7,7,1,2,NEW,NEW,,,,,,,,
,,,,,,,,,,,,,,,,TestWords/VAI_HO_LA.wav,,611fc058dd985f97f01da09a,2021-11-01_08h07.26.330,Agingstudy,2020.2.10,Win32,60,,,,,D,,,,,,,,,,,,,,,2,1,2.3753,0,8,8,8,1,2,NEW,NEW,,,,,,,,
,,,,,,,,,,,,,,,,TestWords/DAI_RU_CHI.wav,,611fc058dd985f97f01da09a,2021-11-01_08h07.26.330,Agingstudy,2020.2.10,Win32,60,,,,,D,,,,,,,,,,,,,,,1,1,0.9391,0,9,9,9,1,1,OLD,OLD,,,,,,,,
,,,,,,,,,,,,,,,,TestWords/RAY_PA_TI.wav,,611fc058dd985f97f01da09a,2021-11-01_08h07.26.330,Agingstudy,2020.2.10,Win32,60,,,,,D,,,,,,,,,,,,,,,2,1,0.734,0,10,10,10,1,2,NEW,NEW,,,,,,,,
,,,,,,,,,,,,,,,,TestWords/NO_WA_BAY.wav,,611fc058dd985f97f01da09a,2021-11-01_08h07.26.330,Agingstudy,2020.2.10,Win32,60,,,,,D,,,,,,,,,,,,,,,2,1,0.7599,0,11,11,11,1,2,NEW,NEW,,,,,,,,
,,,,,,,,,,,,,,,,TestWords/GA_MU_ZI.wav,,611fc058dd985f97f01da09a,2021-11-01_08h07.26.330,Agingstudy,2020.2.10,Win32,60,,,,,D,,,,,,,,,,,,,,,1,1,0.4157,0,12,12,12,1,1,OLD,OLD,,,,,,,,
,,,,,,,,,,,,,,,,TestWords/WAI_VU_NA.wav,,611fc058dd985f97f01da09a,2021-11-01_08h07.26.330,Agingstudy,2020.2.10,Win32,60,,,,,D,,,,,,,,,,,,,,,2,1,1.4825,0,13,13,13,1,2,NEW,NEW,,,,,,,,
,,,,,,,,,,,,,,,,TestWords/KAY_LI_BA.wav,,611fc058dd985f97f01da09a,2021-11-01_08h07.26.330,Agingstudy,2020.2.10,Win32,60,,,,,D,,,,,,,,,,,,,,,2,1,0.6464,0,14,14,14,1,2,NEW,SIMILAR,,,,,,,,
,,,,,,,,,,,,,,,,TestWords/FU_RAI_ZO.wav,,611fc058dd985f97f01da09a,2021-11-01_08h07.26.330,Agingstudy,2020.2.10,Win32,60,,,,,D,,,,,,,,,,,,,,,1,0,0.5669,0,15,15,15,1,2,NEW,SIMILAR,,,,,,,,
,,,,,,,,,,,,,,,,TestWords/KAI_LAY_TA.wav,,611fc058dd985f97f01da09a,2021-11-01_08h07.26.330,Agingstudy,2020.2.10,Win32,60,,,,,D,,,,,,,,,,,,,,,2,1,0.5336,0,16,16,16,1,2,NEW,NEW,,,,,,,,
,,,,,,,,,,,,,,,,TestWords/RAY_PA_TI.wav,,611fc058dd985f97f01da09a,2021-11-01_08h07.26.330,Agingstudy,2020.2.10,Win32,60,,,,,D,,,,,,,,,,,,,,,1,1,0.7404,0,17,17,17,1,1,OLD,OLD,,,,,,,,
,,,,,,,,,,,,,,,,TestWords/DAI_RU_CHI.wav,,611fc058dd985f97f01da09a,2021-11-01_08h07.26.330,Agingstudy,2020.2.10,Win32,60,,,,,D,,,,,,,,,,,,,,,1,1,0.7449,0,18,18,18,1,1,OLD,OLD,,,,,,,,
,,,,,,,,,,,,,,,,TestWords/WAI_NA_VU.wav,,611fc058dd985f97f01da09a,2021-11-01_08h07.26.330,Agingstudy,2020.2.10,Win32,60,,,,,D,,,,,,,,,,,,,,,2,1,0.5902,0,19,19,19,1,2,NEW,SIMILAR,,,,,,,,
,,,,,,,,,,,,,,,,TestWords/GA_MU_ZI.wav,,611fc058dd985f97f01da09a,2021-11-01_08h07.26.330,Agingstudy,2020.2.10,Win32,60,,,,,D,,,,,,,,,,,,,,,1,1,0.2895,0,20,20,20,1,1,OLD,OLD,,,,,,,,
,,,,,,,,,,,,,,,,TestWords/KAY_BA_LI.wav,,611fc058dd985f97f01da09a,2021-11-01_08h07.26.330,Agingstudy,2020.2.10,Win32,60,,,,,D,,,,,,,,,,,,,,,1,0,0.4911,0,21,21,21,1,2,NEW,SIMILAR,,,,,,,,
,,,,,,,,,,,,,,,,TestWords/KAI_LAY_TA.wav,,611fc058dd985f97f01da09a,2021-11-01_08h07.26.330,Agingstudy,2020.2.10,Win32,60,,,,,D,,,,,,,,,,,,,,,1,1,0.6745,0,22,22,22,1,1,OLD,OLD,,,,,,,,
,,,,,,,,,,,,,,,,TestWords/FU_ZO_RAI.wav,,611fc058dd985f97f01da09a,2021-11-01_08h07.26.330,Agingstudy,2020.2.10,Win32,60,,,,,D,,,,,,,,,,,,,,,1,0,0.4171,0,23,23,23,1,2,NEW,SIMILAR,,,,,,,,
,,,,,,,,,,,,,,,,TestWords/RAY_PA_TI.wav,,611fc058dd985f97f01da09a,2021-11-01_08h07.26.330,Agingstudy,2020.2.10,Win32,60,,,,,D,,,,,,,,,,,,,,,1,1,0.4847,0,24,24,24,1,1,OLD,OLD,,,,,,,,
,,,,,,,,,,,,,,,,TestWords/DAI_RU_CHI.wav,,611fc058dd985f97f01da09a,2021-11-01_08h07.26.330,Agingstudy,2020.2.10,Win32,60,,,,,D,,,,,,,,,,,,,,,1,1,0.4507,0,25,25,25,1,1,OLD,OLD,,,,,,,,
,,,,,,,,,,,,,,,,TestWords/VU_NA_WAI.wav,,611fc058dd985f97f01da09a,2021-11-01_08h07.26.330,Agingstudy,2020.2.10,Win32,60,,,,,D,,,,,,,,,,,,,,,2,1,1.8391,0,26,26,26,1,2,NEW,SIMILAR,,,,,,,,
,,,,,,,,,,,,,,,,TestWords/RAI_FU_ZO.wav,,611fc058dd985f97f01da09a,2021-11-01_08h07.26.330,Agingstudy,2020.2.10,Win32,60,,,,,D,,,,,,,,,,,,,,,1,0,0.6669,0,27,27,27,1,2,NEW,SIMILAR,,,,,,,,
,,,,,,,,,,,,,,,,TestWords/GA_MU_ZI.wav,,611fc058dd985f97f01da09a,2021-11-01_08h07.26.330,Agingstudy,2020.2.10,Win32,60,,,,,D,,,,,,,,,,,,,,,1,1,0.2078,0,28,28,28,1,1,OLD,OLD,,,,,,,,
,,,,,,,,,,,,,,,,TestWords/LI_BA_KAY.wav,,611fc058dd985f97f01da09a,2021-11-01_08h07.26.330,Agingstudy,2020.2.10,Win32,60,,,,,D,,,,,,,,,,,,,,,2,1,0.7885,0,29,29,29,1,2,NEW,SIMILAR,,,,,,,,
,,,,,,,,,,,,,,,,TestWords/KAI_LAY_TA.wav,,611fc058dd985f97f01da09a,2021-11-01_08h07.26.330,Agingstudy,2020.2.10,Win32,60,,,,,D,,,,,,,,,,,,,,,2,0,0.7665,0,30,30,30,1,1,OLD,OLD,,,,,,,,
,,,,,,,,,,,,,,,,TestWords/RAY_PA_TI.wav,,611fc058dd985f97f01da09a,2021-11-01_08h07.26.330,Agingstudy,2020.2.10,Win32,60,,,,,D,,,,,,,,,,,,,,,1,1,0.651,0,31,31,31,1,1,OLD,OLD,,,,,,,,
,,,,,,,,,,,,,,,,TestWords/VU_WAI_NA.wav,,611fc058dd985f97f01da09a,2021-11-01_08h07.26.330,Agingstudy,2020.2.10,Win32,60,,,,,D,,,,,,,,,,,,,,,2,1,0.5266,0,32,32,32,1,2,NEW,SIMILAR,,,,,,,,
,,,,,,,,,,,,,,,,TestWords/DAI_RU_CHI.wav,,611fc058dd985f97f01da09a,2021-11-01_08h07.26.330,Agingstudy,2020.2.10,Win32,60,,,,,D,,,,,,,,,,,,,,,1,1,0.3762,0,33,33,33,1,1,OLD,OLD,,,,,,,,
,,,,,,,,,,,,,,,,TestWords/ZO_FU_RAI.wav,,611fc058dd985f97f01da09a,2021-11-01_08h07.26.330,Agingstudy,2020.2.10,Win32,60,,,,,D,,,,,,,,,,,,,,,1,0,1.0166,0,34,34,34,1,2,NEW,SIMILAR,,,,,,,,
,,,,,,,,,,,,,,,,TestWords/BA_LI_KAY.wav,,611fc058dd985f97f01da09a,2021-11-01_08h07.26.330,Agingstudy,2020.2.10,Win32,60,,,,,D,,,,,,,,,,,,,,,1,0,0.6455,0,35,35,35,1,2,NEW,SIMILAR,,,,,,,,
,,,,,,,,,,,,,,,,TestWords/KO_SU_FAI.wav,,611fc058dd985f97f01da09a,2021-11-01_08h07.26.330,Agingstudy,2020.2.10,Win32,60,,,,,D,,,,,,,,,,,,,,,2,1,0.4162,0,36,36,36,1,2,NEW,NEW,,,,,,,,
,,,,,,,,,,,,,,,,TestWords/KAI_LAY_TA.wav,,611fc058dd985f97f01da09a,2021-11-01_08h07.26.330,Agingstudy,2020.2.10,Win32,60,,,,,D,,,,,,,,,,,,,,,2,0,1.8114,0,37,37,37,1,1,OLD,OLD,,,,,,,,
,,,,,,,,,,,,,,,,TestWords/RAY_PA_TI.wav,,611fc058dd985f97f01da09a,2021-11-01_08h07.26.330,Agingstudy,2020.2.10,Win32,60,,,,,D,,,,,,,,,,,,,,,1,1,0.591,0,38,38,38,1,1,OLD,OLD,,,,,,,,
,,,,,,,,,,,,,,,,TestWords/GA_MU_ZI.wav,,611fc058dd985f97f01da09a,2021-11-01_08h07.26.330,Agingstudy,2020.2.10,Win32,60,,,,,D,,,,,,,,,,,,,,,1,1,0.2835,0,39,39,39,1,1,OLD,OLD,,,,,,,,
,,,,,,,,,,,,,,,,TestWords/NA_VU_WAI.wav,,611fc058dd985f97f01da09a,2021-11-01_08h07.26.330,Agingstudy,2020.2.10,Win32,60,,,,,D,,,,,,,,,,,,,,,2,1,0.6255,0,40,40,40,1,2,NEW,SIMILAR,,,,,,,,
,,,,,,,,,,,,,,,,TestWords/DAI_RU_CHI.wav,,611fc058dd985f97f01da09a,2021-11-01_08h07.26.330,Agingstudy,2020.2.10,Win32,60,,,,,D,,,,,,,,,,,,,,,1,1,0.3826,0,41,41,41,1,1,OLD,OLD,,,,,,,,
,,,,,,,,,,,,,,,,TestWords/KO_SU_FAI.wav,,611fc058dd985f97f01da09a,2021-11-01_08h07.26.330,Agingstudy,2020.2.10,Win32,60,,,,,D,,,,,,,,,,,,,,,2,0,1.0417,0,42,42,42,1,1,OLD,OLD,,,,,,,,
,,,,,,,,,,,,,,,,TestWords/NA_WAI_VU.wav,,611fc058dd985f97f01da09a,2021-11-01_08h07.26.330,Agingstudy,2020.2.10,Win32,60,,,,,D,,,,,,,,,,,,,,,1,0,1.3828,0,43,43,43,1,2,NEW,SIMILAR,,,,,,,,
,,,,,,,,,,,,,,,,TestWords/KAI_LAY_TA.wav,,611fc058dd985f97f01da09a,2021-11-01_08h07.26.330,Agingstudy,2020.2.10,Win32,60,,,,,D,,,,,,,,,,,,,,,2,0,1.4496,0,44,44,44,1,1,OLD,OLD,,,,,,,,
,,,,,,,,,,,,,,,,TestWords/SI_VAI_CHU.wav,,611fc058dd985f97f01da09a,2021-11-01_08h07.26.330,Agingstudy,2020.2.10,Win32,60,,,,,D,,,,,,,,,,,,,,,2,1,1.082,0,45,45,45,1,2,NEW,NEW,,,,,,,,
,,,,,,,,,,,,,,,,TestWords/RAY_PA_TI.wav,,611fc058dd985f97f01da09a,2021-11-01_08h07.26.330,Agingstudy,2020.2.10,Win32,60,,,,,D,,,,,,,,,,,,,,,1,1,0.6128,0,46,46,46,1,1,OLD,OLD,,,,,,,,
,,,,,,,,,,,,,,,,TestWords/GA_MU_ZI.wav,,611fc058dd985f97f01da09a,2021-11-01_08h07.26.330,Agingstudy,2020.2.10,Win32,60,,,,,D,,,,,,,,,,,,,,,1,1,0.1963,0,47,47,47,1,1,OLD,OLD,,,,,,,,
,,,,,,,,,,,,,,,,TestWords/LI_KAY_BA.wav,,611fc058dd985f97f01da09a,2021-11-01_08h07.26.330,Agingstudy,2020.2.10,Win32,60,,,,,D,,,,,,,,,,,,,,,2,1,1.7926,0,48,48,48,1,2,NEW,SIMILAR,,,,,,,,
,,,,,,,,,,,,,,,,TestWords/KO_SU_FAI.wav,,611fc058dd985f97f01da09a,2021-11-01_08h07.26.330,Agingstudy,2020.2.10,Win32,60,,,,,D,,,,,,,,,,,,,,,1,1,1.2329,0,49,49,49,1,1,OLD,OLD,,,,,,,,
,,,,,,,,,,,,,,,,TestWords/DAI_RU_CHI.wav,,611fc058dd985f97f01da09a,2021-11-01_08h07.26.330,Agingstudy,2020.2.10,Win32,60,,,,,D,,,,,,,,,,,,,,,1,1,0.6332,0,50,50,50,1,1,OLD,OLD,,,,,,,,
,,,,,,,,,,,,,,,,TestWords/DAY_PU_MO.wav,,611fc058dd985f97f01da09a,2021-11-01_08h07.26.330,Agingstudy,2020.2.10,Win32,60,,,,,D,,,,,,,,,,,,,,,2,1,0.473,0,51,51,51,1,2,NEW,NEW,,,,,,,,
,,,,,,,,,,,,,,,,TestWords/KAI_LAY_TA.wav,,611fc058dd985f97f01da09a,2021-11-01_08h07.26.330,Agingstudy,2020.2.10,Win32,60,,,,,D,,,,,,,,,,,,,,,1,1,0.783,0,52,52,52,1,1,OLD,OLD,,,,,,,,
,,,,,,,,,,,,,,,,TestWords/LU_HAI_BO.wav,,611fc058dd985f97f01da09a,2021-11-01_08h07.26.330,Agingstudy,2020.2.10,Win32,60,,,,,D,,,,,,,,,,,,,,,2,1,1.1267,0,53,53,53,1,2,NEW,NEW,,,,,,,,
,,,,,,,,,,,,,,,,TestWords/RAY_PA_TI.wav,,611fc058dd985f97f01da09a,2021-11-01_08h07.26.330,Agingstudy,2020.2.10,Win32,60,,,,,D,,,,,,,,,,,,,,,1,1,0.6665,0,54,54,54,1,1,OLD,OLD,,,,,,,,
,,,,,,,,,,,,,,,,TestWords/GA_MU_ZI.wav,,611fc058dd985f97f01da09a,2021-11-01_08h07.26.330,Agingstudy,2020.2.10,Win32,60,,,,,D,,,,,,,,,,,,,,,1,1,0.2045,0,55,55,55,1,1,OLD,OLD,,,,,,,,
,,,,,,,,,,,,,,,,TestWords/KO_SU_FAI.wav,,611fc058dd985f97f01da09a,2021-11-01_08h07.26.330,Agingstudy,2020.2.10,Win32,60,,,,,D,,,,,,,,,,,,,,,1,1,1.2706,0,56,56,56,1,1,OLD,OLD,,,,,,,,
,,,,,,,,,,,,,,,,TestWords/TAI_SA_GI.wav,,611fc058dd985f97f01da09a,2021-11-01_08h07.26.330,Agingstudy,2020.2.10,Win32,60,,,,,D,,,,,,,,,,,,,,,2,1,0.6338,0,57,57,57,1,2,NEW,NEW,,,,,,,,
,,,,,,,,,,,,,,,,TestWords/DAY_MO_PU.wav,,611fc058dd985f97f01da09a,2021-11-01_08h07.26.330,Agingstudy,2020.2.10,Win32,60,,,,,D,,,,,,,,,,,,,,,1,0,1.8825,0,58,58,58,1,2,NEW,SIMILAR,,,,,,,,
,,,,,,,,,,,,,,,,TestWords/DAI_RU_CHI.wav,,611fc058dd985f97f01da09a,2021-11-01_08h07.26.330,Agingstudy,2020.2.10,Win32,60,,,,,D,,,,,,,,,,,,,,,1,1,0.7998,0,59,59,59,1,1,OLD,OLD,,,,,,,,
,,,,,,,,,,,,,,,,TestWords/KAI_LAY_TA.wav,,611fc058dd985f97f01da09a,2021-11-01_08h07.26.330,Agingstudy,2020.2.10,Win32,60,,,,,D,,,,,,,,,,,,,,,1,1,1.0095,0,60,60,60,1,1,OLD,OLD,,,,,,,,
,,,,,,,,,,,,,,,,TestWords/LA_ZAY_CHAI.wav,,611fc058dd985f97f01da09a,2021-11-01_08h07.26.330,Agingstudy,2020.2.10,Win32,60,,,,,D,,,,,,,,,,,,,,,2,1,1.2155,0,61,61,61,1,2,NEW,NEW,,,,,,,,
,,,,,,,,,,,,,,,,TestWords/RAY_PA_TI.wav,,611fc058dd985f97f01da09a,2021-11-01_08h07.26.330,Agingstudy,2020.2.10,Win32,60,,,,,D,,,,,,,,,,,,,,,1,1,0.5002,0,62,62,62,1,1,OLD,OLD,,,,,,,,
,,,,,,,,,,,,,,,,TestWords/KO_SU_FAI.wav,,611fc058dd985f97f01da09a,2021-11-01_08h07.26.330,Agingstudy,2020.2.10,Win32,60,,,,,D,,,,,,,,,,,,,,,1,1,0.8865,0,63,63,63,1,1,OLD,OLD,,,,,,,,
,,,,,,,,,,,,,,,,TestWords/GA_MU_ZI.wav,,611fc058dd985f97f01da09a,2021-11-01_08h07.26.330,Agingstudy,2020.2.10,Win32,60,,,,,D,,,,,,,,,,,,,,,1,1,0.1471,0,64,64,64,1,1,OLD,OLD,,,,,,,,
,,,,,,,,,,,,,,,,TestWords/GI_TAI_SA.wav,,611fc058dd985f97f01da09a,2021-11-01_08h07.26.330,Agingstudy,2020.2.10,Win32,60,,,,,D,,,,,,,,,,,,,,,2,1,0.6167,0,65,65,65,1,2,NEW,SIMILAR,,,,,,,,
,,,,,,,,,,,,,,,,TestWords/MO_DAY_PU.wav,,611fc058dd985f97f01da09a,2021-11-01_08h07.26.330,Agingstudy,2020.2.10,Win32,60,,,,,D,,,,,,,,,,,,,,,2,1,1.1989,0,66,66,66,1,2,NEW,SIMILAR,,,,,,,,
,,,,,,,,,,,,,,,,TestWords/KAI_LAY_TA.wav,,611fc058dd985f97f01da09a,2021-11-01_08h07.26.330,Agingstudy,2020.2.10,Win32,60,,,,,D,,,,,,,,,,,,,,,1,1,2.9341,0,67,67,67,1,1,OLD,OLD,,,,,,,,
,,,,,,,,,,,,,,,,TestWords/KO_SU_FAI.wav,,611fc058dd985f97f01da09a,2021-11-01_08h07.26.330,Agingstudy,2020.2.10,Win32,60,,,,,D,,,,,,,,,,,,,,,1,1,1.3825,0,68,68,68,1,1,OLD,OLD,,,,,,,,
,,,,,,,,,,,,,,,,TestWords/RAY_PA_TI.wav,,611fc058dd985f97f01da09a,2021-11-01_08h07.26.330,Agingstudy,2020.2.10,Win32,60,,,,,D,,,,,,,,,,,,,,,1,1,0.5225,0,69,69,69,1,1,OLD,OLD,,,,,,,,
,,,,,,,,,,,,,,,,TestWords/NU_CHAY_SO.wav,,611fc058dd985f97f01da09a,2021-11-01_08h07.26.330,Agingstudy,2020.2.10,Win32,60,,,,,D,,,,,,,,,,,,,,,2,1,0.7049,0,70,70,70,1,2,NEW,NEW,,,,,,,,
,,,,,,,,,,,,,,,,TestWords/GA_MU_ZI.wav,,611fc058dd985f97f01da09a,2021-11-01_08h07.26.330,Agingstudy,2020.2.10,Win32,60,,,,,D,,,,,,,,,,,,,,,1,1,0.1461,0,71,71,71,1,1,OLD,OLD,,,,,,,,
,,,,,,,,,,,,,,,,TestWords/DAI_RU_CHI.wav,,611fc058dd985f97f01da09a,2021-11-01_08h07.26.330,Agingstudy,2020.2.10,Win32,60,,,,,D,,,,,,,,,,,,,,,1,1,0.4617,0,72,72,72,1,1,OLD,OLD,,,,,,,,
,,,,,,,,,,,,,,,,TestWords/SA_TAI_GI.wav,,611fc058dd985f97f01da09a,2021-11-01_08h07.26.330,Agingstudy,2020.2.10,Win32,60,,,,,D,,,,,,,,,,,,,,,2,1,1.0329,0,73,73,73,1,2,NEW,SIMILAR,,,,,,,,
,,,,,,,,,,,,,,,,TestWords/PU_DAY_MO.wav,,611fc058dd985f97f01da09a,2021-11-01_08h07.26.330,Agingstudy,2020.2.10,Win32,60,,,,,D,,,,,,,,,,,,,,,2,1,1.269,0,74,74,74,1,2,NEW,SIMILAR,,,,,,,,
,,,,,,,,,,,,,,,,TestWords/KO_SU_FAI.wav,,611fc058dd985f97f01da09a,2021-11-01_08h07.26.330,Agingstudy,2020.2.10,Win32,60,,,,,D,,,,,,,,,,,,,,,1,1,0.4337,0,75,75,75,1,1,OLD,OLD,,,,,,,,
,,,,,,,,,,,,,,,,TestWords/KAI_LAY_TA.wav,,611fc058dd985f97f01da09a,2021-11-01_08h07.26.330,Agingstudy,2020.2.10,Win32,60,,,,,D,,,,,,,,,,,,,,,1,1,0.4335,0,76,76,76,1,1,OLD,OLD,,,,,,,,
,,,,,,,,,,,,,,,,TestWords/HA_SI_JAI.wav,,611fc058dd985f97f01da09a,2021-11-01_08h07.26.330,Agingstudy,2020.2.10,Win32,60,,,,,D,,,,,,,,,,,,,,,2,1,0.4754,0,77,77,77,1,2,NEW,NEW,,,,,,,,
,,,,,,,,,,,,,,,,TestWords/RAY_PA_TI.wav,,611fc058dd985f97f01da09a,2021-11-01_08h07.26.330,Agingstudy,2020.2.10,Win32,60,,,,,D,,,,,,,,,,,,,,,1,1,0.3167,0,78,78,78,1,1,OLD,OLD,,,,,,,,
,,,,,,,,,,,,,,,,TestWords/DAI_RU_CHI.wav,,611fc058dd985f97f01da09a,2021-11-01_08h07.26.330,Agingstudy,2020.2.10,Win32,60,,,,,D,,,,,,,,,,,,,,,1,1,0.3664,0,79,79,79,1,1,OLD,OLD,,,,,,,,
,,,,,,,,,,,,,,,,TestWords/GA_MU_ZI.wav,,611fc058dd985f97f01da09a,2021-11-01_08h07.26.330,Agingstudy,2020.2.10,Win32,60,,,,,D,,,,,,,,,,,,,,,1,1,0.1836,0,80,80,80,1,1,OLD,OLD,,,,,,,,
,,,,,,,,,,,,,,,,TestWords/SA_GI_TAI.wav,,611fc058dd985f97f01da09a,2021-11-01_08h07.26.330,Agingstudy,2020.2.10,Win32,60,,,,,D,,,,,,,,,,,,,,,1,0,1.7704,0,81,81,81,1,2,NEW,SIMILAR,,,,,,,,
,,,,,,,,,,,,,,,,TestWords/KO_SU_FAI.wav,,611fc058dd985f97f01da09a,2021-11-01_08h07.26.330,Agingstudy,2020.2.10,Win32,60,,,,,D,,,,,,,,,,,,,,,1,1,0.8606,0,82,82,82,1,1,OLD,OLD,,,,,,,,
,,,,,,,,,,,,,,,,TestWords/KAI_LAY_TA.wav,,611fc058dd985f97f01da09a,2021-11-01_08h07.26.330,Agingstudy,2020.2.10,Win32,60,,,,,D,,,,,,,,,,,,,,,1,1,0.6684,0,83,83,83,1,1,OLD,OLD,,,,,,,,
,,,,,,,,,,,,,,,,TestWords/PU_MO_DAY.wav,,611fc058dd985f97f01da09a,2021-11-01_08h07.26.330,Agingstudy,2020.2.10,Win32,60,,,,,D,,,,,,,,,,,,,,,1,0,1.817,0,84,84,84,1,2,NEW,SIMILAR,,,,,,,,
,,,,,,,,,,,,,,,,TestWords/RAY_PA_TI.wav,,611fc058dd985f97f01da09a,2021-11-01_08h07.26.330,Agingstudy,2020.2.10,Win32,60,,,,,D,,,,,,,,,,,,,,,1,1,0.3665,0,85,85,85,1,1,OLD,OLD,,,,,,,,
,,,,,,,,,,,,,,,,TestWords/HI_NAY_VA.wav,,611fc058dd985f97f01da09a,2021-11-01_08h07.26.330,Agingstudy,2020.2.10,Win32,60,,,,,D,,,,,,,,,,,,,,,2,1,0.496,0,86,86,86,1,2,NEW,NEW,,,,,,,,
,,,,,,,,,,,,,,,,TestWords/DAI_RU_CHI.wav,,611fc058dd985f97f01da09a,2021-11-01_08h07.26.330,Agingstudy,2020.2.10,Win32,60,,,,,D,,,,,,,,,,,,,,,1,1,0.3506,0,87,87,87,1,1,OLD,OLD,,,,,,,,
,,,,,,,,,,,,,,,,TestWords/TAI_GI_SA.wav,,611fc058dd985f97f01da09a,2021-11-01_08h07.26.330,Agingstudy,2020.2.10,Win32,60,,,,,D,,,,,,,,,,,,,,,2,1,1.141,0,88,88,88,1,2,NEW,SIMILAR,,,,,,,,
,,,,,,,,,,,,,,,,TestWords/KO_SU_FAI.wav,,611fc058dd985f97f01da09a,2021-11-01_08h07.26.330,Agingstudy,2020.2.10,Win32,60,,,,,D,,,,,,,,,,,,,,,1,1,0.4691,0,89,89,89,1,1,OLD,OLD,,,,,,,,
,,,,,,,,,,,,,,,,TestWords/GA_MU_ZI.wav,,611fc058dd985f97f01da09a,2021-11-01_08h07.26.330,Agingstudy,2020.2.10,Win32,60,,,,,D,,,,,,,,,,,,,,,1,1,0.1952,0,90,90,90,1,1,OLD,OLD,,,,,,,,
,,,,,,,,,,,,,,,,TestWords/PAI_LU_WA.wav,,611fc058dd985f97f01da09a,2021-11-01_08h07.26.330,Agingstudy,2020.2.10,Win32,60,,,,,D,,,,,,,,,,,,,,,2,1,0.4554,0,91,91,91,1,2,NEW,NEW,,,,,,,,
,,,,,,,,,,,,,,,,TestWords/KAI_LAY_TA.wav,,611fc058dd985f97f01da09a,2021-11-01_08h07.26.330,Agingstudy,2020.2.10,Win32,60,,,,,D,,,,,,,,,,,,,,,2,0,1.5337,0,92,92,92,1,1,OLD,OLD,,,,,,,,
,,,,,,,,,,,,,,,,TestWords/MO_PU_DAY.wav,,611fc058dd985f97f01da09a,2021-11-01_08h07.26.330,Agingstudy,2020.2.10,Win32,60,,,,,D,,,,,,,,,,,,,,,2,1,1.3997,0,93,93,93,1,2,NEW,SIMILAR,,,,,,,,
,,,,,,,,,,,,,,,,TestWords/KO_SU_FAI.wav,,611fc058dd985f97f01da09a,2021-11-01_08h07.26.330,Agingstudy,2020.2.10,Win32,60,,,,,D,,,,,,,,,,,,,,,1,1,0.6332,0,94,94,94,1,1,OLD,OLD,,,,,,,,
,,,,,,,,,,,,,,,,TestWords/GI_SA_TAI.wav,,611fc058dd985f97f01da09a,2021-11-01_08h07.26.330,Agingstudy,2020.2.10,Win32,60,,,,,D,,,,,,,,,,,,,,,2,1,0.7827,0,95,95,95,1,2,NEW,SIMILAR,,,,,,,,
,,,,,,,,,,,,,,,,TestWords/HO_NAY_VA.wav,,611fc058dd985f97f01da09a,2021-11-01_08h07.26.330,Agingstudy,2020.2.10,Win32,60,,,,,D,,,,,,,,,,,,,,,2,1,1.2651,0,96,96,96,1,2,NEW,NEW,,,,,,,,
,,,,,,,,,,,,,,,,TestWords/GU_CHAI_PI.wav,,611fc058dd985f97f01da09a,2021-11-01_08h07.26.330,Agingstudy,2020.2.10,Win32,60,,,,,D,,,,,,,,,,,,,,,2,1,1.0018,0,97,97,97,1,2,NEW,NEW,,,,,,,,
,,,,,,,,,,,,,,,,TestWords/KO_SU_FAI.wav,,611fc058dd985f97f01da09a,2021-11-01_08h07.26.330,Agingstudy,2020.2.10,Win32,60,,,,,D,,,,,,,,,,,,,,,1,1,0.5719,0,98,98,98,1,1,OLD,OLD,,,,,,,,
,,,,,,,,,,,,,,,,TestWords/WAI_RO_JU.wav,,611fc058dd985f97f01da09a,2021-11-01_08h07.26.330,Agingstudy,2020.2.10,Win32,60,,,,,D,,,,,,,,,,,,,,,2,1,0.8496,0,99,99,99,1,2,NEW,NEW,,,,,,,,
,,,,,,,,,,,,,,,,,,611fc058dd985f97f01da09a,2021-11-01_08h07.26.330,Agingstudy,2020.2.10,Win32,60,,,,,,,,,,,,,,,,,,,,,,,,,,,,,,,0,0,0,0,1,,,
,,,,,,,,,,,,,,,,,,611fc058dd985f97f01da09a,2021-11-01_08h07.26.330,Agingstudy,2020.2.10,Win32,60,,,,,,,,,,,,,,,,,,,,,,,,,,,,,,,,,,,,return,17.4934,
