Welcome0Continue.keys,Welcome0Continue.rt,SoundCheckBegin.keys,SoundCheckBegin.rt,SoundCheckEndKey.keys,SoundCheckEndKey.rt,HeadphoneContinueKey.keys,HeadphoneContinueKey.rt,CheckResp.keys,CheckResp.corr,CheckResp.rt,HeadphoneLoop.thisRepN,HeadphoneLoop.thisTrialN,HeadphoneLoop.thisN,HeadphoneLoop.thisIndex,HeadphoneLoop.ran,File,Correct,participant,date,expName,psychopyVersion,OS,frameRate,ContinueKey8.keys,ContinueKey8.rt,MSTWelcomeContKey.keys,MSTWelcomeContKey.rt,Condition,MSTTrainIntroKey.keys,MSTTrainIntroKey.rt,MSTTrainKeys.keys,MSTTrainKeys.corr,MSTTrainKeys.rt,MSTTrainLoop.thisRepN,MSTTrainLoop.thisTrialN,MSTTrainLoop.thisN,MSTTrainLoop.thisIndex,MSTTrainLoop.ran,SoundFile,Type,MSTTestBeginKey.keys,MSTTestBeginKey.rt,MST_resp.keys,MST_resp.corr,MST_resp.rt,MSTPlayLoop.thisRepN,MSTPlayLoop.thisTrialN,MSTPlayLoop.thisN,MSTPlayLoop.thisIndex,MSTPlayLoop.ran,WordCorrect,Correct_type,WordType,MSTLoop.thisRepN,MSTLoop.thisTrialN,MSTLoop.thisN,MSTLoop.thisIndex,MSTLoop.ran,EndAllKey.keys,EndAllKey.rt,FeedbackResp.text
space,8.637,space,0.7846,space,5.234,space,19.095,1,1,2.3777,0,0,0,1,1,Headphone/t1_2.wav,1,6154259eca9079e477728fd7,2021-10-31_18h45.50.678,Agingstudy,2020.2.10,Win32,60,,,,,,,,,,,,,,,,,,,,,,,,,,,,,,,,,,,,,,
,,,,,,,,1,1,1.1538,0,1,1,0,1,Headphone/t1_1.wav,1,6154259eca9079e477728fd7,2021-10-31_18h45.50.678,Agingstudy,2020.2.10,Win32,60,,,,,,,,,,,,,,,,,,,,,,,,,,,,,,,,,,,,,,
,,,,,,,,3,1,1.1444,0,2,2,4,1,Headphone/t3_1.wav,3,6154259eca9079e477728fd7,2021-10-31_18h45.50.678,Agingstudy,2020.2.10,Win32,60,,,,,,,,,,,,,,,,,,,,,,,,,,,,,,,,,,,,,,
,,,,,,,,3,1,0.6046,0,3,3,5,1,Headphone/t3_2.wav,3,6154259eca9079e477728fd7,2021-10-31_18h45.50.678,Agingstudy,2020.2.10,Win32,60,,,,,,,,,,,,,,,,,,,,,,,,,,,,,,,,,,,,,,
,,,,,,,,2,1,0.7911,0,4,4,3,1,Headphone/t2_2.wav,2,6154259eca9079e477728fd7,2021-10-31_18h45.50.678,Agingstudy,2020.2.10,Win32,60,,,,,,,,,,,,,,,,,,,,,,,,,,,,,,,,,,,,,,
,,,,,,,,2,1,0.6164,0,5,5,2,1,Headphone/t2_1.wav,2,6154259eca9079e477728fd7,2021-10-31_18h45.50.678,Agingstudy,2020.2.10,Win32,60,,,,,,,,,,,,,,,,,,,,,,,,,,,,,,,,,,,,,,
,,,,,,,,,,,,,,,,,2,6154259eca9079e477728fd7,2021-10-31_18h45.50.678,Agingstudy,2020.2.10,Win32,60,space,22.6201,space,10.5281,1,space,5.0071,2,1,4.5071,0,0,0,0,1,Training/FO_YI_LAY.wav,NEW,,,,,,,,,,,,,,,,,,,,,
,,,,,,,,,,,,,,,,,1,6154259eca9079e477728fd7,2021-10-31_18h45.50.678,Agingstudy,2020.2.10,Win32,60,,,,,,,,1,1,3.8505,0,1,1,1,1,Training/FO_YI_LAY.wav,OLD,,,,,,,,,,,,,,,,,,,,,
,,,,,,,,,,,,,,,,,2,6154259eca9079e477728fd7,2021-10-31_18h45.50.678,Agingstudy,2020.2.10,Win32,60,,,,,,,,2,1,1.6341,0,2,2,2,1,Training/YO_BU_JAY.wav,NEW,,,,,,,,,,,,,,,,,,,,,
,,,,,,,,,,,,,,,,,2,6154259eca9079e477728fd7,2021-10-31_18h45.50.678,Agingstudy,2020.2.10,Win32,60,,,,,,,,2,1,1.2901,0,3,3,3,1,Training/JAY_YO_BU.wav,SIMILAR,,,,,,,,,,,,,,,,,,,,,
,,,,,,,,,,,,,,,,,1,6154259eca9079e477728fd7,2021-10-31_18h45.50.678,Agingstudy,2020.2.10,Win32,60,,,,,,,,1,1,0.7168,0,4,4,4,1,Training/FO_YI_LAY.wav,OLD,,,,,,,,,,,,,,,,,,,,,
,,,,,,,,,,,,,,,,TestWords/SI_VAI_CHU.wav,,6154259eca9079e477728fd7,2021-10-31_18h45.50.678,Agingstudy,2020.2.10,Win32,60,,,,,F,,,,,,,,,,,,,space,5.8838,2,1,5.5004,0,0,0,0,1,2,NEW,NEW,,,,,,,,
,,,,,,,,,,,,,,,,TestWords/HO_NAY_VA.wav,,6154259eca9079e477728fd7,2021-10-31_18h45.50.678,Agingstudy,2020.2.10,Win32,60,,,,,F,,,,,,,,,,,,,,,2,1,0.4238,0,1,1,1,1,2,NEW,NEW,,,,,,,,
,,,,,,,,,,,,,,,,TestWords/KAI_LAY_TA.wav,,6154259eca9079e477728fd7,2021-10-31_18h45.50.678,Agingstudy,2020.2.10,Win32,60,,,,,F,,,,,,,,,,,,,,,2,1,0.2446,0,2,2,2,1,2,NEW,NEW,,,,,,,,
,,,,,,,,,,,,,,,,TestWords/PAI_LU_WA.wav,,6154259eca9079e477728fd7,2021-10-31_18h45.50.678,Agingstudy,2020.2.10,Win32,60,,,,,F,,,,,,,,,,,,,,,2,1,0.8078,0,3,3,3,1,2,NEW,NEW,,,,,,,,
,,,,,,,,,,,,,,,,TestWords/WAI_VU_NA.wav,,6154259eca9079e477728fd7,2021-10-31_18h45.50.678,Agingstudy,2020.2.10,Win32,60,,,,,F,,,,,,,,,,,,,,,1,0,1.2282,0,4,4,4,1,2,NEW,NEW,,,,,,,,
,,,,,,,,,,,,,,,,TestWords/VAI_HO_LA.wav,,6154259eca9079e477728fd7,2021-10-31_18h45.50.678,Agingstudy,2020.2.10,Win32,60,,,,,F,,,,,,,,,,,,,,,2,1,1.9787,0,5,5,5,1,2,NEW,NEW,,,,,,,,
,,,,,,,,,,,,,,,,TestWords/GU_CHAI_PI.wav,,6154259eca9079e477728fd7,2021-10-31_18h45.50.678,Agingstudy,2020.2.10,Win32,60,,,,,F,,,,,,,,,,,,,,,2,1,0.6844,0,6,6,6,1,2,NEW,NEW,,,,,,,,
,,,,,,,,,,,,,,,,TestWords/KO_SU_FAI.wav,,6154259eca9079e477728fd7,2021-10-31_18h45.50.678,Agingstudy,2020.2.10,Win32,60,,,,,F,,,,,,,,,,,,,,,1,0,1.2735,0,7,7,7,1,2,NEW,NEW,,,,,,,,
,,,,,,,,,,,,,,,,TestWords/KAI_LAY_TA.wav,,6154259eca9079e477728fd7,2021-10-31_18h45.50.678,Agingstudy,2020.2.10,Win32,60,,,,,F,,,,,,,,,,,,,,,1,1,0.824,0,8,8,8,1,1,OLD,OLD,,,,,,,,
,,,,,,,,,,,,,,,,TestWords/BA_KAY_LI.wav,,6154259eca9079e477728fd7,2021-10-31_18h45.50.678,Agingstudy,2020.2.10,Win32,60,,,,,F,,,,,,,,,,,,,,,1,0,1.3607,0,9,9,9,1,2,NEW,NEW,,,,,,,,
,,,,,,,,,,,,,,,,TestWords/DAI_RU_CHI.wav,,6154259eca9079e477728fd7,2021-10-31_18h45.50.678,Agingstudy,2020.2.10,Win32,60,,,,,F,,,,,,,,,,,,,,,2,1,0.8863,0,10,10,10,1,2,NEW,NEW,,,,,,,,
,,,,,,,,,,,,,,,,TestWords/WAI_NA_VU.wav,,6154259eca9079e477728fd7,2021-10-31_18h45.50.678,Agingstudy,2020.2.10,Win32,60,,,,,F,,,,,,,,,,,,,,,1,0,1.4083,0,11,11,11,1,2,NEW,SIMILAR,,,,,,,,
,,,,,,,,,,,,,,,,TestWords/DA_CHU_VAI.wav,,6154259eca9079e477728fd7,2021-10-31_18h45.50.678,Agingstudy,2020.2.10,Win32,60,,,,,F,,,,,,,,,,,,,,,2,1,2.7503,0,12,12,12,1,2,NEW,NEW,,,,,,,,
,,,,,,,,,,,,,,,,TestWords/KAI_LAY_TA.wav,,6154259eca9079e477728fd7,2021-10-31_18h45.50.678,Agingstudy,2020.2.10,Win32,60,,,,,F,,,,,,,,,,,,,,,1,1,2.153,0,13,13,13,1,1,OLD,OLD,,,,,,,,
,,,,,,,,,,,,,,,,TestWords/KO_SU_FAI.wav,,6154259eca9079e477728fd7,2021-10-31_18h45.50.678,Agingstudy,2020.2.10,Win32,60,,,,,F,,,,,,,,,,,,,,,2,0,0.5597,0,14,14,14,1,1,OLD,OLD,,,,,,,,
,,,,,,,,,,,,,,,,TestWords/VU_NA_WAI.wav,,6154259eca9079e477728fd7,2021-10-31_18h45.50.678,Agingstudy,2020.2.10,Win32,60,,,,,F,,,,,,,,,,,,,,,1,0,1.0436,0,15,15,15,1,2,NEW,SIMILAR,,,,,,,,
,,,,,,,,,,,,,,,,TestWords/DAI_RU_CHI.wav,,6154259eca9079e477728fd7,2021-10-31_18h45.50.678,Agingstudy,2020.2.10,Win32,60,,,,,F,,,,,,,,,,,,,,,1,1,0.8557,0,16,16,16,1,1,OLD,OLD,,,,,,,,
,,,,,,,,,,,,,,,,TestWords/KAY_LI_BA.wav,,6154259eca9079e477728fd7,2021-10-31_18h45.50.678,Agingstudy,2020.2.10,Win32,60,,,,,F,,,,,,,,,,,,,,,2,1,1.2225,0,17,17,17,1,2,NEW,SIMILAR,,,,,,,,
,,,,,,,,,,,,,,,,TestWords/RAY_PA_TI.wav,,6154259eca9079e477728fd7,2021-10-31_18h45.50.678,Agingstudy,2020.2.10,Win32,60,,,,,F,,,,,,,,,,,,,,,2,1,2.612,0,18,18,18,1,2,NEW,NEW,,,,,,,,
,,,,,,,,,,,,,,,,TestWords/KAI_LAY_TA.wav,,6154259eca9079e477728fd7,2021-10-31_18h45.50.678,Agingstudy,2020.2.10,Win32,60,,,,,F,,,,,,,,,,,,,,,1,1,0.8004,0,19,19,19,1,1,OLD,OLD,,,,,,,,
,,,,,,,,,,,,,,,,TestWords/VU_WAI_NA.wav,,6154259eca9079e477728fd7,2021-10-31_18h45.50.678,Agingstudy,2020.2.10,Win32,60,,,,,F,,,,,,,,,,,,,,,1,0,0.6463,0,20,20,20,1,2,NEW,SIMILAR,,,,,,,,
,,,,,,,,,,,,,,,,TestWords/KO_SU_FAI.wav,,6154259eca9079e477728fd7,2021-10-31_18h45.50.678,Agingstudy,2020.2.10,Win32,60,,,,,F,,,,,,,,,,,,,,,2,0,0.4797,0,21,21,21,1,1,OLD,OLD,,,,,,,,
,,,,,,,,,,,,,,,,TestWords/HI_NAY_VA.wav,,6154259eca9079e477728fd7,2021-10-31_18h45.50.678,Agingstudy,2020.2.10,Win32,60,,,,,F,,,,,,,,,,,,,,,2,1,2.7065,0,22,22,22,1,2,NEW,NEW,,,,,,,,
,,,,,,,,,,,,,,,,TestWords/KAI_LAY_TA.wav,,6154259eca9079e477728fd7,2021-10-31_18h45.50.678,Agingstudy,2020.2.10,Win32,60,,,,,F,,,,,,,,,,,,,,,1,1,0.6602,0,23,23,23,1,1,OLD,OLD,,,,,,,,
,,,,,,,,,,,,,,,,TestWords/RAY_PA_TI.wav,,6154259eca9079e477728fd7,2021-10-31_18h45.50.678,Agingstudy,2020.2.10,Win32,60,,,,,F,,,,,,,,,,,,,,,2,0,0.7053,0,24,24,24,1,1,OLD,OLD,,,,,,,,
,,,,,,,,,,,,,,,,TestWords/DAI_RU_CHI.wav,,6154259eca9079e477728fd7,2021-10-31_18h45.50.678,Agingstudy,2020.2.10,Win32,60,,,,,F,,,,,,,,,,,,,,,1,1,0.7375,0,25,25,25,1,1,OLD,OLD,,,,,,,,
,,,,,,,,,,,,,,,,TestWords/NA_VU_WAI.wav,,6154259eca9079e477728fd7,2021-10-31_18h45.50.678,Agingstudy,2020.2.10,Win32,60,,,,,F,,,,,,,,,,,,,,,1,0,0.4023,0,26,26,26,1,2,NEW,SIMILAR,,,,,,,,
,,,,,,,,,,,,,,,,TestWords/KAY_BA_LI.wav,,6154259eca9079e477728fd7,2021-10-31_18h45.50.678,Agingstudy,2020.2.10,Win32,60,,,,,F,,,,,,,,,,,,,,,1,0,1.3844,0,27,27,27,1,2,NEW,SIMILAR,,,,,,,,
,,,,,,,,,,,,,,,,TestWords/KO_SU_FAI.wav,,6154259eca9079e477728fd7,2021-10-31_18h45.50.678,Agingstudy,2020.2.10,Win32,60,,,,,F,,,,,,,,,,,,,,,2,0,0.8749,0,28,28,28,1,1,OLD,OLD,,,,,,,,
,,,,,,,,,,,,,,,,TestWords/KAI_LAY_TA.wav,,6154259eca9079e477728fd7,2021-10-31_18h45.50.678,Agingstudy,2020.2.10,Win32,60,,,,,F,,,,,,,,,,,,,,,1,1,0.2674,0,29,29,29,1,1,OLD,OLD,,,,,,,,
,,,,,,,,,,,,,,,,TestWords/RAY_PA_TI.wav,,6154259eca9079e477728fd7,2021-10-31_18h45.50.678,Agingstudy,2020.2.10,Win32,60,,,,,F,,,,,,,,,,,,,,,1,1,0.1362,0,30,30,30,1,1,OLD,OLD,,,,,,,,
,,,,,,,,,,,,,,,,TestWords/NU_CHAY_SO.wav,,6154259eca9079e477728fd7,2021-10-31_18h45.50.678,Agingstudy,2020.2.10,Win32,60,,,,,F,,,,,,,,,,,,,,,1,0,0.3955,0,31,31,31,1,2,NEW,NEW,,,,,,,,
,,,,,,,,,,,,,,,,TestWords/DAI_RU_CHI.wav,,6154259eca9079e477728fd7,2021-10-31_18h45.50.678,Agingstudy,2020.2.10,Win32,60,,,,,F,,,,,,,,,,,,,,,1,1,1.6939,0,32,32,32,1,1,OLD,OLD,,,,,,,,
,,,,,,,,,,,,,,,,TestWords/NA_WAI_VU.wav,,6154259eca9079e477728fd7,2021-10-31_18h45.50.678,Agingstudy,2020.2.10,Win32,60,,,,,F,,,,,,,,,,,,,,,1,0,2.4903,0,33,33,33,1,2,NEW,SIMILAR,,,,,,,,
,,,,,,,,,,,,,,,,TestWords/GA_MU_ZI.wav,,6154259eca9079e477728fd7,2021-10-31_18h45.50.678,Agingstudy,2020.2.10,Win32,60,,,,,F,,,,,,,,,,,,,,,2,1,0.2836,0,34,34,34,1,2,NEW,NEW,,,,,,,,
,,,,,,,,,,,,,,,,TestWords/KAI_LAY_TA.wav,,6154259eca9079e477728fd7,2021-10-31_18h45.50.678,Agingstudy,2020.2.10,Win32,60,,,,,F,,,,,,,,,,,,,,,1,1,0.2012,0,35,35,35,1,1,OLD,OLD,,,,,,,,
,,,,,,,,,,,,,,,,TestWords/LI_BA_KAY.wav,,6154259eca9079e477728fd7,2021-10-31_18h45.50.678,Agingstudy,2020.2.10,Win32,60,,,,,F,,,,,,,,,,,,,,,2,1,0.6624,0,36,36,36,1,2,NEW,SIMILAR,,,,,,,,
,,,,,,,,,,,,,,,,TestWords/KO_SU_FAI.wav,,6154259eca9079e477728fd7,2021-10-31_18h45.50.678,Agingstudy,2020.2.10,Win32,60,,,,,F,,,,,,,,,,,,,,,1,1,0.3209,0,37,37,37,1,1,OLD,OLD,,,,,,,,
,,,,,,,,,,,,,,,,TestWords/RAY_PA_TI.wav,,6154259eca9079e477728fd7,2021-10-31_18h45.50.678,Agingstudy,2020.2.10,Win32,60,,,,,F,,,,,,,,,,,,,,,1,1,0.5509,0,38,38,38,1,1,OLD,OLD,,,,,,,,
,,,,,,,,,,,,,,,,TestWords/TAI_SA_GI.wav,,6154259eca9079e477728fd7,2021-10-31_18h45.50.678,Agingstudy,2020.2.10,Win32,60,,,,,F,,,,,,,,,,,,,,,2,1,0.8182,0,39,39,39,1,2,NEW,NEW,,,,,,,,
,,,,,,,,,,,,,,,,TestWords/DAI_RU_CHI.wav,,6154259eca9079e477728fd7,2021-10-31_18h45.50.678,Agingstudy,2020.2.10,Win32,60,,,,,F,,,,,,,,,,,,,,,2,0,2.5521,0,40,40,40,1,1,OLD,OLD,,,,,,,,
,,,,,,,,,,,,,,,,TestWords/GA_MU_ZI.wav,,6154259eca9079e477728fd7,2021-10-31_18h45.50.678,Agingstudy,2020.2.10,Win32,60,,,,,F,,,,,,,,,,,,,,,1,1,0.3682,0,41,41,41,1,1,OLD,OLD,,,,,,,,
,,,,,,,,,,,,,,,,TestWords/KAI_LAY_TA.wav,,6154259eca9079e477728fd7,2021-10-31_18h45.50.678,Agingstudy,2020.2.10,Win32,60,,,,,F,,,,,,,,,,,,,,,1,1,0.3167,0,42,42,42,1,1,OLD,OLD,,,,,,,,
,,,,,,,,,,,,,,,,TestWords/GI_SA_TAI.wav,,6154259eca9079e477728fd7,2021-10-31_18h45.50.678,Agingstudy,2020.2.10,Win32,60,,,,,F,,,,,,,,,,,,,,,2,1,1.8262,0,43,43,43,1,2,NEW,SIMILAR,,,,,,,,
,,,,,,,,,,,,,,,,TestWords/BA_LI_KAY.wav,,6154259eca9079e477728fd7,2021-10-31_18h45.50.678,Agingstudy,2020.2.10,Win32,60,,,,,F,,,,,,,,,,,,,,,1,0,1.2004,0,44,44,44,1,2,NEW,SIMILAR,,,,,,,,
,,,,,,,,,,,,,,,,TestWords/KO_SU_FAI.wav,,6154259eca9079e477728fd7,2021-10-31_18h45.50.678,Agingstudy,2020.2.10,Win32,60,,,,,F,,,,,,,,,,,,,,,1,1,1.484,0,45,45,45,1,1,OLD,OLD,,,,,,,,
,,,,,,,,,,,,,,,,TestWords/RAY_PA_TI.wav,,6154259eca9079e477728fd7,2021-10-31_18h45.50.678,Agingstudy,2020.2.10,Win32,60,,,,,F,,,,,,,,,,,,,,,1,1,0.117,0,46,46,46,1,1,OLD,OLD,,,,,,,,
,,,,,,,,,,,,,,,,TestWords/GA_MU_ZI.wav,,6154259eca9079e477728fd7,2021-10-31_18h45.50.678,Agingstudy,2020.2.10,Win32,60,,,,,F,,,,,,,,,,,,,,,1,1,0.2009,0,47,47,47,1,1,OLD,OLD,,,,,,,,
,,,,,,,,,,,,,,,,TestWords/LU_HAI_BO.wav,,6154259eca9079e477728fd7,2021-10-31_18h45.50.678,Agingstudy,2020.2.10,Win32,60,,,,,F,,,,,,,,,,,,,,,2,1,0.7003,0,48,48,48,1,2,NEW,NEW,,,,,,,,
,,,,,,,,,,,,,,,,TestWords/KAI_LAY_TA.wav,,6154259eca9079e477728fd7,2021-10-31_18h45.50.678,Agingstudy,2020.2.10,Win32,60,,,,,F,,,,,,,,,,,,,,,1,1,0.3109,0,49,49,49,1,1,OLD,OLD,,,,,,,,
,,,,,,,,,,,,,,,,TestWords/DAI_RU_CHI.wav,,6154259eca9079e477728fd7,2021-10-31_18h45.50.678,Agingstudy,2020.2.10,Win32,60,,,,,F,,,,,,,,,,,,,,,1,1,0.3168,0,50,50,50,1,1,OLD,OLD,,,,,,,,
,,,,,,,,,,,,,,,,TestWords/GI_TAI_SA.wav,,6154259eca9079e477728fd7,2021-10-31_18h45.50.678,Agingstudy,2020.2.10,Win32,60,,,,,F,,,,,,,,,,,,,,,1,0,0.6061,0,51,51,51,1,2,NEW,SIMILAR,,,,,,,,
,,,,,,,,,,,,,,,,TestWords/LI_KAY_BA.wav,,6154259eca9079e477728fd7,2021-10-31_18h45.50.678,Agingstudy,2020.2.10,Win32,60,,,,,F,,,,,,,,,,,,,,,1,0,0.824,0,52,52,52,1,2,NEW,SIMILAR,,,,,,,,
,,,,,,,,,,,,,,,,TestWords/RAY_PA_TI.wav,,6154259eca9079e477728fd7,2021-10-31_18h45.50.678,Agingstudy,2020.2.10,Win32,60,,,,,F,,,,,,,,,,,,,,,1,1,0.519,0,53,53,53,1,1,OLD,OLD,,,,,,,,
,,,,,,,,,,,,,,,,TestWords/KO_SU_FAI.wav,,6154259eca9079e477728fd7,2021-10-31_18h45.50.678,Agingstudy,2020.2.10,Win32,60,,,,,F,,,,,,,,,,,,,,,1,1,1.0546,0,54,54,54,1,1,OLD,OLD,,,,,,,,
,,,,,,,,,,,,,,,,TestWords/DAY_PU_MO.wav,,6154259eca9079e477728fd7,2021-10-31_18h45.50.678,Agingstudy,2020.2.10,Win32,60,,,,,F,,,,,,,,,,,,,,,2,1,1.0566,0,55,55,55,1,2,NEW,NEW,,,,,,,,
,,,,,,,,,,,,,,,,TestWords/KAI_LAY_TA.wav,,6154259eca9079e477728fd7,2021-10-31_18h45.50.678,Agingstudy,2020.2.10,Win32,60,,,,,F,,,,,,,,,,,,,,,1,1,0.155,0,56,56,56,1,1,OLD,OLD,,,,,,,,
,,,,,,,,,,,,,,,,TestWords/GA_MU_ZI.wav,,6154259eca9079e477728fd7,2021-10-31_18h45.50.678,Agingstudy,2020.2.10,Win32,60,,,,,F,,,,,,,,,,,,,,,1,1,0.3837,0,57,57,57,1,1,OLD,OLD,,,,,,,,
,,,,,,,,,,,,,,,,TestWords/CHU_LA_PAY.wav,,6154259eca9079e477728fd7,2021-10-31_18h45.50.678,Agingstudy,2020.2.10,Win32,60,,,,,F,,,,,,,,,,,,,,,2,1,0.8845,0,58,58,58,1,2,NEW,NEW,,,,,,,,
,,,,,,,,,,,,,,,,TestWords/DAI_RU_CHI.wav,,6154259eca9079e477728fd7,2021-10-31_18h45.50.678,Agingstudy,2020.2.10,Win32,60,,,,,F,,,,,,,,,,,,,,,1,1,0.3178,0,59,59,59,1,1,OLD,OLD,,,,,,,,
,,,,,,,,,,,,,,,,TestWords/SA_TAI_GI.wav,,6154259eca9079e477728fd7,2021-10-31_18h45.50.678,Agingstudy,2020.2.10,Win32,60,,,,,F,,,,,,,,,,,,,,,2,1,0.7291,0,60,60,60,1,2,NEW,SIMILAR,,,,,,,,
,,,,,,,,,,,,,,,,TestWords/RAY_PA_TI.wav,,6154259eca9079e477728fd7,2021-10-31_18h45.50.678,Agingstudy,2020.2.10,Win32,60,,,,,F,,,,,,,,,,,,,,,1,1,0.5343,0,61,61,61,1,1,OLD,OLD,,,,,,,,
,,,,,,,,,,,,,,,,TestWords/KAI_LAY_TA.wav,,6154259eca9079e477728fd7,2021-10-31_18h45.50.678,Agingstudy,2020.2.10,Win32,60,,,,,F,,,,,,,,,,,,,,,1,1,0.3508,0,62,62,62,1,1,OLD,OLD,,,,,,,,
,,,,,,,,,,,,,,,,TestWords/FU_RAI_ZO.wav,,6154259eca9079e477728fd7,2021-10-31_18h45.50.678,Agingstudy,2020.2.10,Win32,60,,,,,F,,,,,,,,,,,,,,,2,1,0.8248,0,63,63,63,1,2,NEW,NEW,,,,,,,,
,,,,,,,,,,,,,,,,TestWords/KO_SU_FAI.wav,,6154259eca9079e477728fd7,2021-10-31_18h45.50.678,Agingstudy,2020.2.10,Win32,60,,,,,F,,,,,,,,,,,,,,,2,0,1.4885,0,64,64,64,1,1,OLD,OLD,,,,,,,,
,,,,,,,,,,,,,,,,TestWords/GA_MU_ZI.wav,,6154259eca9079e477728fd7,2021-10-31_18h45.50.678,Agingstudy,2020.2.10,Win32,60,,,,,F,,,,,,,,,,,,,,,1,1,0.9197,0,65,65,65,1,1,OLD,OLD,,,,,,,,
,,,,,,,,,,,,,,,,TestWords/DAY_MO_PU.wav,,6154259eca9079e477728fd7,2021-10-31_18h45.50.678,Agingstudy,2020.2.10,Win32,60,,,,,F,,,,,,,,,,,,,,,1,0,0.6554,0,66,66,66,1,2,NEW,SIMILAR,,,,,,,,
,,,,,,,,,,,,,,,,TestWords/DAI_RU_CHI.wav,,6154259eca9079e477728fd7,2021-10-31_18h45.50.678,Agingstudy,2020.2.10,Win32,60,,,,,F,,,,,,,,,,,,,,,1,1,0.2074,0,67,67,67,1,1,OLD,OLD,,,,,,,,
,,,,,,,,,,,,,,,,TestWords/FI_GU_CHA.wav,,6154259eca9079e477728fd7,2021-10-31_18h45.50.678,Agingstudy,2020.2.10,Win32,60,,,,,F,,,,,,,,,,,,,,,2,1,1.8599,0,68,68,68,1,2,NEW,NEW,,,,,,,,
,,,,,,,,,,,,,,,,TestWords/GA_MU_ZI.wav,,6154259eca9079e477728fd7,2021-10-31_18h45.50.678,Agingstudy,2020.2.10,Win32,60,,,,,F,,,,,,,,,,,,,,,1,1,0.5565,0,69,69,69,1,1,OLD,OLD,,,,,,,,
,,,,,,,,,,,,,,,,TestWords/RAY_PA_TI.wav,,6154259eca9079e477728fd7,2021-10-31_18h45.50.678,Agingstudy,2020.2.10,Win32,60,,,,,F,,,,,,,,,,,,,,,1,1,0.1011,0,70,70,70,1,1,OLD,OLD,,,,,,,,
,,,,,,,,,,,,,,,,TestWords/SA_GI_TAI.wav,,6154259eca9079e477728fd7,2021-10-31_18h45.50.678,Agingstudy,2020.2.10,Win32,60,,,,,F,,,,,,,,,,,,,,,2,1,0.834,0,71,71,71,1,2,NEW,SIMILAR,,,,,,,,
,,,,,,,,,,,,,,,,TestWords/MO_DAY_PU.wav,,6154259eca9079e477728fd7,2021-10-31_18h45.50.678,Agingstudy,2020.2.10,Win32,60,,,,,F,,,,,,,,,,,,,,,1,0,0.7838,0,72,72,72,1,2,NEW,SIMILAR,,,,,,,,
,,,,,,,,,,,,,,,,TestWords/KO_SU_FAI.wav,,6154259eca9079e477728fd7,2021-10-31_18h45.50.678,Agingstudy,2020.2.10,Win32,60,,,,,F,,,,,,,,,,,,,,,2,0,2.451,0,73,73,73,1,1,OLD,OLD,,,,,,,,
,,,,,,,,,,,,,,,,TestWords/RAI_ZO_FU.wav,,6154259eca9079e477728fd7,2021-10-31_18h45.50.678,Agingstudy,2020.2.10,Win32,60,,,,,F,,,,,,,,,,,,,,,1,0,1.5889,0,74,74,74,1,2,NEW,SIMILAR,,,,,,,,
,,,,,,,,,,,,,,,,TestWords/GA_MU_ZI.wav,,6154259eca9079e477728fd7,2021-10-31_18h45.50.678,Agingstudy,2020.2.10,Win32,60,,,,,F,,,,,,,,,,,,,,,1,1,0.2184,0,75,75,75,1,1,OLD,OLD,,,,,,,,
,,,,,,,,,,,,,,,,TestWords/DAI_RU_CHI.wav,,6154259eca9079e477728fd7,2021-10-31_18h45.50.678,Agingstudy,2020.2.10,Win32,60,,,,,F,,,,,,,,,,,,,,,1,1,0.4843,0,76,76,76,1,1,OLD,OLD,,,,,,,,
,,,,,,,,,,,,,,,,TestWords/TAI_GI_SA.wav,,6154259eca9079e477728fd7,2021-10-31_18h45.50.678,Agingstudy,2020.2.10,Win32,60,,,,,F,,,,,,,,,,,,,,,1,0,0.5474,0,77,77,77,1,2,NEW,SIMILAR,,,,,,,,
,,,,,,,,,,,,,,,,TestWords/RAY_PA_TI.wav,,6154259eca9079e477728fd7,2021-10-31_18h45.50.678,Agingstudy,2020.2.10,Win32,60,,,,,F,,,,,,,,,,,,,,,1,1,0.0573,0,78,78,78,1,1,OLD,OLD,,,,,,,,
,,,,,,,,,,,,,,,,TestWords/PU_DAY_MO.wav,,6154259eca9079e477728fd7,2021-10-31_18h45.50.678,Agingstudy,2020.2.10,Win32,60,,,,,F,,,,,,,,,,,,,,,2,1,0.6007,0,79,79,79,1,2,NEW,SIMILAR,,,,,,,,
,,,,,,,,,,,,,,,,TestWords/KO_SU_FAI.wav,,6154259eca9079e477728fd7,2021-10-31_18h45.50.678,Agingstudy,2020.2.10,Win32,60,,,,,F,,,,,,,,,,,,,,,2,0,2.0383,0,80,80,80,1,1,OLD,OLD,,,,,,,,
,,,,,,,,,,,,,,,,TestWords/ZO_RAI_FU.wav,,6154259eca9079e477728fd7,2021-10-31_18h45.50.678,Agingstudy,2020.2.10,Win32,60,,,,,F,,,,,,,,,,,,,,,1,0,0.9345,0,81,81,81,1,2,NEW,SIMILAR,,,,,,,,
,,,,,,,,,,,,,,,,TestWords/GA_MU_ZI.wav,,6154259eca9079e477728fd7,2021-10-31_18h45.50.678,Agingstudy,2020.2.10,Win32,60,,,,,F,,,,,,,,,,,,,,,1,1,0.3689,0,82,82,82,1,1,OLD,OLD,,,,,,,,
,,,,,,,,,,,,,,,,TestWords/RAY_PA_TI.wav,,6154259eca9079e477728fd7,2021-10-31_18h45.50.678,Agingstudy,2020.2.10,Win32,60,,,,,F,,,,,,,,,,,,,,,1,1,0.6576,0,83,83,83,1,1,OLD,OLD,,,,,,,,
,,,,,,,,,,,,,,,,TestWords/DAI_RU_CHI.wav,,6154259eca9079e477728fd7,2021-10-31_18h45.50.678,Agingstudy,2020.2.10,Win32,60,,,,,F,,,,,,,,,,,,,,,1,1,2.9922,0,84,84,84,1,1,OLD,OLD,,,,,,,,
,,,,,,,,,,,,,,,,TestWords/GA_MU_ZI.wav,,6154259eca9079e477728fd7,2021-10-31_18h45.50.678,Agingstudy,2020.2.10,Win32,60,,,,,F,,,,,,,,,,,,,,,1,1,0.0899,0,85,85,85,1,1,OLD,OLD,,,,,,,,
,,,,,,,,,,,,,,,,TestWords/NO_WA_BAY.wav,,6154259eca9079e477728fd7,2021-10-31_18h45.50.678,Agingstudy,2020.2.10,Win32,60,,,,,F,,,,,,,,,,,,,,,2,1,0.4389,0,86,86,86,1,2,NEW,NEW,,,,,,,,
,,,,,,,,,,,,,,,,TestWords/FU_ZO_RAI.wav,,6154259eca9079e477728fd7,2021-10-31_18h45.50.678,Agingstudy,2020.2.10,Win32,60,,,,,F,,,,,,,,,,,,,,,1,0,0.4449,0,87,87,87,1,2,NEW,SIMILAR,,,,,,,,
,,,,,,,,,,,,,,,,TestWords/KO_SU_FAI.wav,,6154259eca9079e477728fd7,2021-10-31_18h45.50.678,Agingstudy,2020.2.10,Win32,60,,,,,F,,,,,,,,,,,,,,,1,1,0.5267,0,88,88,88,1,1,OLD,OLD,,,,,,,,
,,,,,,,,,,,,,,,,TestWords/PU_MO_DAY.wav,,6154259eca9079e477728fd7,2021-10-31_18h45.50.678,Agingstudy,2020.2.10,Win32,60,,,,,F,,,,,,,,,,,,,,,1,0,2.0333,0,89,89,89,1,2,NEW,SIMILAR,,,,,,,,
,,,,,,,,,,,,,,,,TestWords/RAY_PA_TI.wav,,6154259eca9079e477728fd7,2021-10-31_18h45.50.678,Agingstudy,2020.2.10,Win32,60,,,,,F,,,,,,,,,,,,,,,1,1,0.3855,0,90,90,90,1,1,OLD,OLD,,,,,,,,
,,,,,,,,,,,,,,,,TestWords/DAI_RU_CHI.wav,,6154259eca9079e477728fd7,2021-10-31_18h45.50.678,Agingstudy,2020.2.10,Win32,60,,,,,F,,,,,,,,,,,,,,,1,1,0.3293,0,91,91,91,1,1,OLD,OLD,,,,,,,,
,,,,,,,,,,,,,,,,TestWords/RAI_FU_ZO.wav,,6154259eca9079e477728fd7,2021-10-31_18h45.50.678,Agingstudy,2020.2.10,Win32,60,,,,,F,,,,,,,,,,,,,,,1,0,0.7179,0,92,92,92,1,2,NEW,SIMILAR,,,,,,,,
,,,,,,,,,,,,,,,,TestWords/GA_MU_ZI.wav,,6154259eca9079e477728fd7,2021-10-31_18h45.50.678,Agingstudy,2020.2.10,Win32,60,,,,,F,,,,,,,,,,,,,,,1,1,0.2941,0,93,93,93,1,1,OLD,OLD,,,,,,,,
,,,,,,,,,,,,,,,,TestWords/HA_SI_JAI.wav,,6154259eca9079e477728fd7,2021-10-31_18h45.50.678,Agingstudy,2020.2.10,Win32,60,,,,,F,,,,,,,,,,,,,,,2,1,0.6269,0,94,94,94,1,2,NEW,NEW,,,,,,,,
,,,,,,,,,,,,,,,,TestWords/MO_PU_DAY.wav,,6154259eca9079e477728fd7,2021-10-31_18h45.50.678,Agingstudy,2020.2.10,Win32,60,,,,,F,,,,,,,,,,,,,,,1,0,0.2872,0,95,95,95,1,2,NEW,SIMILAR,,,,,,,,
,,,,,,,,,,,,,,,,TestWords/LA_ZAY_CHAI.wav,,6154259eca9079e477728fd7,2021-10-31_18h45.50.678,Agingstudy,2020.2.10,Win32,60,,,,,F,,,,,,,,,,,,,,,2,1,0.6674,0,96,96,96,1,2,NEW,NEW,,,,,,,,
,,,,,,,,,,,,,,,,TestWords/GA_MU_ZI.wav,,6154259eca9079e477728fd7,2021-10-31_18h45.50.678,Agingstudy,2020.2.10,Win32,60,,,,,F,,,,,,,,,,,,,,,1,1,0.1758,0,97,97,97,1,1,OLD,OLD,,,,,,,,
,,,,,,,,,,,,,,,,TestWords/ZO_FU_RAI.wav,,6154259eca9079e477728fd7,2021-10-31_18h45.50.678,Agingstudy,2020.2.10,Win32,60,,,,,F,,,,,,,,,,,,,,,1,0,0.5667,0,98,98,98,1,2,NEW,SIMILAR,,,,,,,,
,,,,,,,,,,,,,,,,TestWords/WAI_RO_JU.wav,,6154259eca9079e477728fd7,2021-10-31_18h45.50.678,Agingstudy,2020.2.10,Win32,60,,,,,F,,,,,,,,,,,,,,,2,1,1.0027,0,99,99,99,1,2,NEW,NEW,,,,,,,,
,,,,,,,,,,,,,,,,,,6154259eca9079e477728fd7,2021-10-31_18h45.50.678,Agingstudy,2020.2.10,Win32,60,,,,,,,,,,,,,,,,,,,,,,,,,,,,,,,0,0,0,0,1,,,
,,,,,,,,,,,,,,,,,,6154259eca9079e477728fd7,2021-10-31_18h45.50.678,Agingstudy,2020.2.10,Win32,60,,,,,,,,,,,,,,,,,,,,,,,,,,,,,,,,,,,,return,8.101,
