Welcome0Continue.keys,Welcome0Continue.rt,SoundCheckBegin.keys,SoundCheckBegin.rt,SoundCheckEndKey.keys,SoundCheckEndKey.rt,HeadphoneContinueKey.keys,HeadphoneContinueKey.rt,CheckResp.keys,CheckResp.corr,CheckResp.rt,HeadphoneLoop.thisRepN,HeadphoneLoop.thisTrialN,HeadphoneLoop.thisN,HeadphoneLoop.thisIndex,HeadphoneLoop.ran,File,Correct,participant,date,expName,psychopyVersion,OS,frameRate,ContinueKey8.keys,ContinueKey8.rt,MSTWelcomeContKey.keys,MSTWelcomeContKey.rt,Condition,MSTTrainIntroKey.keys,MSTTrainIntroKey.rt,MSTTrainKeys.keys,MSTTrainKeys.corr,MSTTrainKeys.rt,MSTTrainLoop.thisRepN,MSTTrainLoop.thisTrialN,MSTTrainLoop.thisN,MSTTrainLoop.thisIndex,MSTTrainLoop.ran,SoundFile,Type,MSTTestBeginKey.keys,MSTTestBeginKey.rt,MST_resp.keys,MST_resp.corr,MST_resp.rt,MSTPlayLoop.thisRepN,MSTPlayLoop.thisTrialN,MSTPlayLoop.thisN,MSTPlayLoop.thisIndex,MSTPlayLoop.ran,WordCorrect,Correct_type,WordType,MSTLoop.thisRepN,MSTLoop.thisTrialN,MSTLoop.thisN,MSTLoop.thisIndex,MSTLoop.ran,EndAllKey.keys,EndAllKey.rt,FeedbackResp.text
space,6.0279,space,12.6171,space,2.7493,space,6.971,2,1,0.8142,0,0,0,2,1,Headphone/t2_1.wav,2,616e3503faa77a9b103ee397,2021-11-02_13h06.28.433,Agingstudy,2020.2.10,MacIntel,60,,,,,,,,,,,,,,,,,,,,,,,,,,,,,,,,,,,,,,
,,,,,,,,3,1,0.2715,0,1,1,4,1,Headphone/t3_1.wav,3,616e3503faa77a9b103ee397,2021-11-02_13h06.28.433,Agingstudy,2020.2.10,MacIntel,60,,,,,,,,,,,,,,,,,,,,,,,,,,,,,,,,,,,,,,
,,,,,,,,3,1,0.3067,0,2,2,5,1,Headphone/t3_2.wav,3,616e3503faa77a9b103ee397,2021-11-02_13h06.28.433,Agingstudy,2020.2.10,MacIntel,60,,,,,,,,,,,,,,,,,,,,,,,,,,,,,,,,,,,,,,
,,,,,,,,1,1,2.1442,0,3,3,1,1,Headphone/t1_2.wav,1,616e3503faa77a9b103ee397,2021-11-02_13h06.28.433,Agingstudy,2020.2.10,MacIntel,60,,,,,,,,,,,,,,,,,,,,,,,,,,,,,,,,,,,,,,
,,,,,,,,2,1,0.1211,0,4,4,3,1,Headphone/t2_2.wav,2,616e3503faa77a9b103ee397,2021-11-02_13h06.28.433,Agingstudy,2020.2.10,MacIntel,60,,,,,,,,,,,,,,,,,,,,,,,,,,,,,,,,,,,,,,
,,,,,,,,1,1,0.2778,0,5,5,0,1,Headphone/t1_1.wav,1,616e3503faa77a9b103ee397,2021-11-02_13h06.28.433,Agingstudy,2020.2.10,MacIntel,60,,,,,,,,,,,,,,,,,,,,,,,,,,,,,,,,,,,,,,
,,,,,,,,,,,,,,,,,2,616e3503faa77a9b103ee397,2021-11-02_13h06.28.433,Agingstudy,2020.2.10,MacIntel,60,space,32.907,space,7.01,1,space,3.4465,2,1,2.5051,0,0,0,0,1,Training/FO_YI_LAY.wav,NEW,,,,,,,,,,,,,,,,,,,,,
,,,,,,,,,,,,,,,,,1,616e3503faa77a9b103ee397,2021-11-02_13h06.28.433,Agingstudy,2020.2.10,MacIntel,60,,,,,,,,1,1,0.3171,0,1,1,1,1,Training/FO_YI_LAY.wav,OLD,,,,,,,,,,,,,,,,,,,,,
,,,,,,,,,,,,,,,,,2,616e3503faa77a9b103ee397,2021-11-02_13h06.28.433,Agingstudy,2020.2.10,MacIntel,60,,,,,,,,1,0,0.368,0,2,2,2,1,Training/YO_BU_JAY.wav,NEW,,,,,,,,,,,,,,,,,,,,,
,,,,,,,,,,,,,,,,,2,616e3503faa77a9b103ee397,2021-11-02_13h06.28.433,Agingstudy,2020.2.10,MacIntel,60,,,,,,,,2,1,1.3822,0,3,3,3,1,Training/JAY_YO_BU.wav,SIMILAR,,,,,,,,,,,,,,,,,,,,,
,,,,,,,,,,,,,,,,,1,616e3503faa77a9b103ee397,2021-11-02_13h06.28.433,Agingstudy,2020.2.10,MacIntel,60,,,,,,,,1,1,1.6475,0,4,4,4,1,Training/FO_YI_LAY.wav,OLD,,,,,,,,,,,,,,,,,,,,,
,,,,,,,,,,,,,,,,TestWords/HO_NAY_VA.wav,,616e3503faa77a9b103ee397,2021-11-02_13h06.28.433,Agingstudy,2020.2.10,MacIntel,60,,,,,E,,,,,,,,,,,,,space,8.4001,2,1,1.0377,0,0,0,0,1,2,NEW,NEW,,,,,,,,
,,,,,,,,,,,,,,,,TestWords/LU_HAI_BO.wav,,616e3503faa77a9b103ee397,2021-11-02_13h06.28.433,Agingstudy,2020.2.10,MacIntel,60,,,,,E,,,,,,,,,,,,,,,2,1,0.4096,0,1,1,1,1,2,NEW,NEW,,,,,,,,
,,,,,,,,,,,,,,,,TestWords/GA_MU_ZI.wav,,616e3503faa77a9b103ee397,2021-11-02_13h06.28.433,Agingstudy,2020.2.10,MacIntel,60,,,,,E,,,,,,,,,,,,,,,2,1,0.2938,0,2,2,2,1,2,NEW,NEW,,,,,,,,
,,,,,,,,,,,,,,,,TestWords/BA_KAY_LI.wav,,616e3503faa77a9b103ee397,2021-11-02_13h06.28.433,Agingstudy,2020.2.10,MacIntel,60,,,,,E,,,,,,,,,,,,,,,2,1,0.1767,0,3,3,3,1,2,NEW,NEW,,,,,,,,
,,,,,,,,,,,,,,,,TestWords/DA_CHU_VAI.wav,,616e3503faa77a9b103ee397,2021-11-02_13h06.28.433,Agingstudy,2020.2.10,MacIntel,60,,,,,E,,,,,,,,,,,,,,,2,1,0.3068,0,4,4,4,1,2,NEW,NEW,,,,,,,,
,,,,,,,,,,,,,,,,TestWords/CHU_LA_PAY.wav,,616e3503faa77a9b103ee397,2021-11-02_13h06.28.433,Agingstudy,2020.2.10,MacIntel,60,,,,,E,,,,,,,,,,,,,,,2,1,1.7721,0,5,5,5,1,2,NEW,NEW,,,,,,,,
,,,,,,,,,,,,,,,,TestWords/RAY_PA_TI.wav,,616e3503faa77a9b103ee397,2021-11-02_13h06.28.433,Agingstudy,2020.2.10,MacIntel,60,,,,,E,,,,,,,,,,,,,,,2,1,0.2903,0,6,6,6,1,2,NEW,NEW,,,,,,,,
,,,,,,,,,,,,,,,,TestWords/WAI_VU_NA.wav,,616e3503faa77a9b103ee397,2021-11-02_13h06.28.433,Agingstudy,2020.2.10,MacIntel,60,,,,,E,,,,,,,,,,,,,,,2,1,0.2513,0,7,7,7,1,2,NEW,NEW,,,,,,,,
,,,,,,,,,,,,,,,,TestWords/VAI_HO_LA.wav,,616e3503faa77a9b103ee397,2021-11-02_13h06.28.433,Agingstudy,2020.2.10,MacIntel,60,,,,,E,,,,,,,,,,,,,,,2,1,0.5934,0,8,8,8,1,2,NEW,NEW,,,,,,,,
,,,,,,,,,,,,,,,,TestWords/KAY_LI_BA.wav,,616e3503faa77a9b103ee397,2021-11-02_13h06.28.433,Agingstudy,2020.2.10,MacIntel,60,,,,,E,,,,,,,,,,,,,,,1,0,0.1633,0,9,9,9,1,2,NEW,SIMILAR,,,,,,,,
,,,,,,,,,,,,,,,,TestWords/GA_MU_ZI.wav,,616e3503faa77a9b103ee397,2021-11-02_13h06.28.433,Agingstudy,2020.2.10,MacIntel,60,,,,,E,,,,,,,,,,,,,,,1,1,1.4754,0,10,10,10,1,1,OLD,OLD,,,,,,,,
,,,,,,,,,,,,,,,,TestWords/LA_ZAY_CHAI.wav,,616e3503faa77a9b103ee397,2021-11-02_13h06.28.433,Agingstudy,2020.2.10,MacIntel,60,,,,,E,,,,,,,,,,,,,,,1,0,0.8228,0,11,11,11,1,2,NEW,NEW,,,,,,,,
,,,,,,,,,,,,,,,,TestWords/RAY_PA_TI.wav,,616e3503faa77a9b103ee397,2021-11-02_13h06.28.433,Agingstudy,2020.2.10,MacIntel,60,,,,,E,,,,,,,,,,,,,,,1,1,0.1579,0,12,12,12,1,1,OLD,OLD,,,,,,,,
,,,,,,,,,,,,,,,,TestWords/WAI_NA_VU.wav,,616e3503faa77a9b103ee397,2021-11-02_13h06.28.433,Agingstudy,2020.2.10,MacIntel,60,,,,,E,,,,,,,,,,,,,,,1,0,0.6214,0,13,13,13,1,2,NEW,SIMILAR,,,,,,,,
,,,,,,,,,,,,,,,,TestWords/DAI_RU_CHI.wav,,616e3503faa77a9b103ee397,2021-11-02_13h06.28.433,Agingstudy,2020.2.10,MacIntel,60,,,,,E,,,,,,,,,,,,,,,2,1,0.2205,0,14,14,14,1,2,NEW,NEW,,,,,,,,
,,,,,,,,,,,,,,,,TestWords/KAY_BA_LI.wav,,616e3503faa77a9b103ee397,2021-11-02_13h06.28.433,Agingstudy,2020.2.10,MacIntel,60,,,,,E,,,,,,,,,,,,,,,1,0,0.4426,0,15,15,15,1,2,NEW,SIMILAR,,,,,,,,
,,,,,,,,,,,,,,,,TestWords/GA_MU_ZI.wav,,616e3503faa77a9b103ee397,2021-11-02_13h06.28.433,Agingstudy,2020.2.10,MacIntel,60,,,,,E,,,,,,,,,,,,,,,1,1,0.0898,0,16,16,16,1,1,OLD,OLD,,,,,,,,
,,,,,,,,,,,,,,,,TestWords/VU_NA_WAI.wav,,616e3503faa77a9b103ee397,2021-11-02_13h06.28.433,Agingstudy,2020.2.10,MacIntel,60,,,,,E,,,,,,,,,,,,,,,1,0,0.4951,0,17,17,17,1,2,NEW,SIMILAR,,,,,,,,
,,,,,,,,,,,,,,,,TestWords/RAY_PA_TI.wav,,616e3503faa77a9b103ee397,2021-11-02_13h06.28.433,Agingstudy,2020.2.10,MacIntel,60,,,,,E,,,,,,,,,,,,,,,1,1,0.487,0,18,18,18,1,1,OLD,OLD,,,,,,,,
,,,,,,,,,,,,,,,,TestWords/LI_BA_KAY.wav,,616e3503faa77a9b103ee397,2021-11-02_13h06.28.433,Agingstudy,2020.2.10,MacIntel,60,,,,,E,,,,,,,,,,,,,,,2,1,0.2199,0,19,19,19,1,2,NEW,SIMILAR,,,,,,,,
,,,,,,,,,,,,,,,,TestWords/DAY_MO_PU.wav,,616e3503faa77a9b103ee397,2021-11-02_13h06.28.433,Agingstudy,2020.2.10,MacIntel,60,,,,,E,,,,,,,,,,,,,,,2,1,0.8739,0,20,20,20,1,2,NEW,NEW,,,,,,,,
,,,,,,,,,,,,,,,,TestWords/DAI_RU_CHI.wav,,616e3503faa77a9b103ee397,2021-11-02_13h06.28.433,Agingstudy,2020.2.10,MacIntel,60,,,,,E,,,,,,,,,,,,,,,1,1,1.3543,0,21,21,21,1,1,OLD,OLD,,,,,,,,
,,,,,,,,,,,,,,,,TestWords/NU_CHAY_SO.wav,,616e3503faa77a9b103ee397,2021-11-02_13h06.28.433,Agingstudy,2020.2.10,MacIntel,60,,,,,E,,,,,,,,,,,,,,,2,1,0.1049,0,22,22,22,1,2,NEW,NEW,,,,,,,,
,,,,,,,,,,,,,,,,TestWords/VU_WAI_NA.wav,,616e3503faa77a9b103ee397,2021-11-02_13h06.28.433,Agingstudy,2020.2.10,MacIntel,60,,,,,E,,,,,,,,,,,,,,,2,1,0.8205,0,23,23,23,1,2,NEW,SIMILAR,,,,,,,,
,,,,,,,,,,,,,,,,TestWords/GA_MU_ZI.wav,,616e3503faa77a9b103ee397,2021-11-02_13h06.28.433,Agingstudy,2020.2.10,MacIntel,60,,,,,E,,,,,,,,,,,,,,,2,0,0.2111,0,24,24,24,1,1,OLD,OLD,,,,,,,,
,,,,,,,,,,,,,,,,TestWords/RAY_PA_TI.wav,,616e3503faa77a9b103ee397,2021-11-02_13h06.28.433,Agingstudy,2020.2.10,MacIntel,60,,,,,E,,,,,,,,,,,,,,,1,1,0.3961,0,25,25,25,1,1,OLD,OLD,,,,,,,,
,,,,,,,,,,,,,,,,TestWords/KAI_LAY_TA.wav,,616e3503faa77a9b103ee397,2021-11-02_13h06.28.433,Agingstudy,2020.2.10,MacIntel,60,,,,,E,,,,,,,,,,,,,,,1,0,0.0773,0,26,26,26,1,2,NEW,NEW,,,,,,,,
,,,,,,,,,,,,,,,,TestWords/TAI_SA_GI.wav,,616e3503faa77a9b103ee397,2021-11-02_13h06.28.433,Agingstudy,2020.2.10,MacIntel,60,,,,,E,,,,,,,,,,,,,,,2,1,0.5087,0,27,27,27,1,2,NEW,NEW,,,,,,,,
,,,,,,,,,,,,,,,,TestWords/BA_LI_KAY.wav,,616e3503faa77a9b103ee397,2021-11-02_13h06.28.433,Agingstudy,2020.2.10,MacIntel,60,,,,,E,,,,,,,,,,,,,,,2,1,1.2403,0,28,28,28,1,2,NEW,SIMILAR,,,,,,,,
,,,,,,,,,,,,,,,,TestWords/KO_SU_FAI.wav,,616e3503faa77a9b103ee397,2021-11-02_13h06.28.433,Agingstudy,2020.2.10,MacIntel,60,,,,,E,,,,,,,,,,,,,,,2,1,0.6781,0,29,29,29,1,2,NEW,NEW,,,,,,,,
,,,,,,,,,,,,,,,,TestWords/MO_DAY_PU.wav,,616e3503faa77a9b103ee397,2021-11-02_13h06.28.433,Agingstudy,2020.2.10,MacIntel,60,,,,,E,,,,,,,,,,,,,,,2,1,0.3546,0,30,30,30,1,2,NEW,SIMILAR,,,,,,,,
,,,,,,,,,,,,,,,,TestWords/DAI_RU_CHI.wav,,616e3503faa77a9b103ee397,2021-11-02_13h06.28.433,Agingstudy,2020.2.10,MacIntel,60,,,,,E,,,,,,,,,,,,,,,1,1,0.1193,0,31,31,31,1,1,OLD,OLD,,,,,,,,
,,,,,,,,,,,,,,,,TestWords/NA_VU_WAI.wav,,616e3503faa77a9b103ee397,2021-11-02_13h06.28.433,Agingstudy,2020.2.10,MacIntel,60,,,,,E,,,,,,,,,,,,,,,1,0,0.1719,0,32,32,32,1,2,NEW,SIMILAR,,,,,,,,
,,,,,,,,,,,,,,,,TestWords/KAI_LAY_TA.wav,,616e3503faa77a9b103ee397,2021-11-02_13h06.28.433,Agingstudy,2020.2.10,MacIntel,60,,,,,E,,,,,,,,,,,,,,,1,1,0.1258,0,33,33,33,1,1,OLD,OLD,,,,,,,,
,,,,,,,,,,,,,,,,TestWords/RAY_PA_TI.wav,,616e3503faa77a9b103ee397,2021-11-02_13h06.28.433,Agingstudy,2020.2.10,MacIntel,60,,,,,E,,,,,,,,,,,,,,,1,1,0.4332,0,34,34,34,1,1,OLD,OLD,,,,,,,,
,,,,,,,,,,,,,,,,TestWords/GA_MU_ZI.wav,,616e3503faa77a9b103ee397,2021-11-02_13h06.28.433,Agingstudy,2020.2.10,MacIntel,60,,,,,E,,,,,,,,,,,,,,,1,1,0.3536,0,35,35,35,1,1,OLD,OLD,,,,,,,,
,,,,,,,,,,,,,,,,TestWords/GI_SA_TAI.wav,,616e3503faa77a9b103ee397,2021-11-02_13h06.28.433,Agingstudy,2020.2.10,MacIntel,60,,,,,E,,,,,,,,,,,,,,,2,1,0.1407,0,36,36,36,1,2,NEW,SIMILAR,,,,,,,,
,,,,,,,,,,,,,,,,TestWords/KO_SU_FAI.wav,,616e3503faa77a9b103ee397,2021-11-02_13h06.28.433,Agingstudy,2020.2.10,MacIntel,60,,,,,E,,,,,,,,,,,,,,,2,0,1.1571,0,37,37,37,1,1,OLD,OLD,,,,,,,,
,,,,,,,,,,,,,,,,TestWords/LI_KAY_BA.wav,,616e3503faa77a9b103ee397,2021-11-02_13h06.28.433,Agingstudy,2020.2.10,MacIntel,60,,,,,E,,,,,,,,,,,,,,,1,0,0.0881,0,38,38,38,1,2,NEW,SIMILAR,,,,,,,,
,,,,,,,,,,,,,,,,TestWords/NA_WAI_VU.wav,,616e3503faa77a9b103ee397,2021-11-02_13h06.28.433,Agingstudy,2020.2.10,MacIntel,60,,,,,E,,,,,,,,,,,,,,,1,0,0.2451,0,39,39,39,1,2,NEW,SIMILAR,,,,,,,,
,,,,,,,,,,,,,,,,TestWords/KAI_LAY_TA.wav,,616e3503faa77a9b103ee397,2021-11-02_13h06.28.433,Agingstudy,2020.2.10,MacIntel,60,,,,,E,,,,,,,,,,,,,,,2,0,0.4037,0,40,40,40,1,1,OLD,OLD,,,,,,,,
,,,,,,,,,,,,,,,,TestWords/RAY_PA_TI.wav,,616e3503faa77a9b103ee397,2021-11-02_13h06.28.433,Agingstudy,2020.2.10,MacIntel,60,,,,,E,,,,,,,,,,,,,,,1,1,0.0897,0,41,41,41,1,1,OLD,OLD,,,,,,,,
,,,,,,,,,,,,,,,,TestWords/PU_DAY_MO.wav,,616e3503faa77a9b103ee397,2021-11-02_13h06.28.433,Agingstudy,2020.2.10,MacIntel,60,,,,,E,,,,,,,,,,,,,,,2,1,0.4053,0,42,42,42,1,2,NEW,SIMILAR,,,,,,,,
,,,,,,,,,,,,,,,,TestWords/GA_MU_ZI.wav,,616e3503faa77a9b103ee397,2021-11-02_13h06.28.433,Agingstudy,2020.2.10,MacIntel,60,,,,,E,,,,,,,,,,,,,,,1,1,0.1267,0,43,43,43,1,1,OLD,OLD,,,,,,,,
,,,,,,,,,,,,,,,,TestWords/DAI_RU_CHI.wav,,616e3503faa77a9b103ee397,2021-11-02_13h06.28.433,Agingstudy,2020.2.10,MacIntel,60,,,,,E,,,,,,,,,,,,,,,1,1,0.2208,0,44,44,44,1,1,OLD,OLD,,,,,,,,
,,,,,,,,,,,,,,,,TestWords/GI_TAI_SA.wav,,616e3503faa77a9b103ee397,2021-11-02_13h06.28.433,Agingstudy,2020.2.10,MacIntel,60,,,,,E,,,,,,,,,,,,,,,2,1,0.172,0,45,45,45,1,2,NEW,SIMILAR,,,,,,,,
,,,,,,,,,,,,,,,,TestWords/KO_SU_FAI.wav,,616e3503faa77a9b103ee397,2021-11-02_13h06.28.433,Agingstudy,2020.2.10,MacIntel,60,,,,,E,,,,,,,,,,,,,,,1,1,0.6564,0,46,46,46,1,1,OLD,OLD,,,,,,,,
,,,,,,,,,,,,,,,,TestWords/WAI_RO_JU.wav,,616e3503faa77a9b103ee397,2021-11-02_13h06.28.433,Agingstudy,2020.2.10,MacIntel,60,,,,,E,,,,,,,,,,,,,,,2,1,0.5393,0,47,47,47,1,2,NEW,NEW,,,,,,,,
,,,,,,,,,,,,,,,,TestWords/KAI_LAY_TA.wav,,616e3503faa77a9b103ee397,2021-11-02_13h06.28.433,Agingstudy,2020.2.10,MacIntel,60,,,,,E,,,,,,,,,,,,,,,1,1,0.6438,0,48,48,48,1,1,OLD,OLD,,,,,,,,
,,,,,,,,,,,,,,,,TestWords/DAI_RU_CHI.wav,,616e3503faa77a9b103ee397,2021-11-02_13h06.28.433,Agingstudy,2020.2.10,MacIntel,60,,,,,E,,,,,,,,,,,,,,,1,1,1.1727,0,49,49,49,1,1,OLD,OLD,,,,,,,,
,,,,,,,,,,,,,,,,TestWords/RAY_PA_TI.wav,,616e3503faa77a9b103ee397,2021-11-02_13h06.28.433,Agingstudy,2020.2.10,MacIntel,60,,,,,E,,,,,,,,,,,,,,,1,1,0.555,0,50,50,50,1,1,OLD,OLD,,,,,,,,
,,,,,,,,,,,,,,,,TestWords/SA_TAI_GI.wav,,616e3503faa77a9b103ee397,2021-11-02_13h06.28.433,Agingstudy,2020.2.10,MacIntel,60,,,,,E,,,,,,,,,,,,,,,2,1,0.9398,0,51,51,51,1,2,NEW,SIMILAR,,,,,,,,
,,,,,,,,,,,,,,,,TestWords/KO_SU_FAI.wav,,616e3503faa77a9b103ee397,2021-11-02_13h06.28.433,Agingstudy,2020.2.10,MacIntel,60,,,,,E,,,,,,,,,,,,,,,1,1,0.4743,0,52,52,52,1,1,OLD,OLD,,,,,,,,
,,,,,,,,,,,,,,,,TestWords/PU_MO_DAY.wav,,616e3503faa77a9b103ee397,2021-11-02_13h06.28.433,Agingstudy,2020.2.10,MacIntel,60,,,,,E,,,,,,,,,,,,,,,2,1,0.4056,0,53,53,53,1,2,NEW,SIMILAR,,,,,,,,
,,,,,,,,,,,,,,,,TestWords/GA_MU_ZI.wav,,616e3503faa77a9b103ee397,2021-11-02_13h06.28.433,Agingstudy,2020.2.10,MacIntel,60,,,,,E,,,,,,,,,,,,,,,1,1,0.1877,0,54,54,54,1,1,OLD,OLD,,,,,,,,
,,,,,,,,,,,,,,,,TestWords/KAI_LAY_TA.wav,,616e3503faa77a9b103ee397,2021-11-02_13h06.28.433,Agingstudy,2020.2.10,MacIntel,60,,,,,E,,,,,,,,,,,,,,,1,1,0.3707,0,55,55,55,1,1,OLD,OLD,,,,,,,,
,,,,,,,,,,,,,,,,TestWords/SA_GI_TAI.wav,,616e3503faa77a9b103ee397,2021-11-02_13h06.28.433,Agingstudy,2020.2.10,MacIntel,60,,,,,E,,,,,,,,,,,,,,,1,0,0.7459,0,56,56,56,1,2,NEW,SIMILAR,,,,,,,,
,,,,,,,,,,,,,,,,TestWords/RAY_PA_TI.wav,,616e3503faa77a9b103ee397,2021-11-02_13h06.28.433,Agingstudy,2020.2.10,MacIntel,60,,,,,E,,,,,,,,,,,,,,,1,1,0.3547,0,57,57,57,1,1,OLD,OLD,,,,,,,,
,,,,,,,,,,,,,,,,TestWords/DAI_RU_CHI.wav,,616e3503faa77a9b103ee397,2021-11-02_13h06.28.433,Agingstudy,2020.2.10,MacIntel,60,,,,,E,,,,,,,,,,,,,,,1,1,0.2293,0,58,58,58,1,1,OLD,OLD,,,,,,,,
,,,,,,,,,,,,,,,,TestWords/KO_SU_FAI.wav,,616e3503faa77a9b103ee397,2021-11-02_13h06.28.433,Agingstudy,2020.2.10,MacIntel,60,,,,,E,,,,,,,,,,,,,,,1,1,0.7528,0,59,59,59,1,1,OLD,OLD,,,,,,,,
,,,,,,,,,,,,,,,,TestWords/ZO_RAI_FU.wav,,616e3503faa77a9b103ee397,2021-11-02_13h06.28.433,Agingstudy,2020.2.10,MacIntel,60,,,,,E,,,,,,,,,,,,,,,2,1,0.2201,0,60,60,60,1,2,NEW,NEW,,,,,,,,
,,,,,,,,,,,,,,,,TestWords/KAI_LAY_TA.wav,,616e3503faa77a9b103ee397,2021-11-02_13h06.28.433,Agingstudy,2020.2.10,MacIntel,60,,,,,E,,,,,,,,,,,,,,,1,1,0.6807,0,61,61,61,1,1,OLD,OLD,,,,,,,,
,,,,,,,,,,,,,,,,TestWords/GA_MU_ZI.wav,,616e3503faa77a9b103ee397,2021-11-02_13h06.28.433,Agingstudy,2020.2.10,MacIntel,60,,,,,E,,,,,,,,,,,,,,,1,1,0.2285,0,62,62,62,1,1,OLD,OLD,,,,,,,,
,,,,,,,,,,,,,,,,TestWords/TAI_GI_SA.wav,,616e3503faa77a9b103ee397,2021-11-02_13h06.28.433,Agingstudy,2020.2.10,MacIntel,60,,,,,E,,,,,,,,,,,,,,,2,1,0.6035,0,63,63,63,1,2,NEW,SIMILAR,,,,,,,,
,,,,,,,,,,,,,,,,TestWords/RAY_PA_TI.wav,,616e3503faa77a9b103ee397,2021-11-02_13h06.28.433,Agingstudy,2020.2.10,MacIntel,60,,,,,E,,,,,,,,,,,,,,,1,1,0.3687,0,64,64,64,1,1,OLD,OLD,,,,,,,,
,,,,,,,,,,,,,,,,TestWords/DAY_PU_MO.wav,,616e3503faa77a9b103ee397,2021-11-02_13h06.28.433,Agingstudy,2020.2.10,MacIntel,60,,,,,E,,,,,,,,,,,,,,,2,1,0.1371,0,65,65,65,1,2,NEW,SIMILAR,,,,,,,,
,,,,,,,,,,,,,,,,TestWords/KO_SU_FAI.wav,,616e3503faa77a9b103ee397,2021-11-02_13h06.28.433,Agingstudy,2020.2.10,MacIntel,60,,,,,E,,,,,,,,,,,,,,,1,1,0.4063,0,66,66,66,1,1,OLD,OLD,,,,,,,,
,,,,,,,,,,,,,,,,TestWords/DAI_RU_CHI.wav,,616e3503faa77a9b103ee397,2021-11-02_13h06.28.433,Agingstudy,2020.2.10,MacIntel,60,,,,,E,,,,,,,,,,,,,,,1,1,0.2738,0,67,67,67,1,1,OLD,OLD,,,,,,,,
,,,,,,,,,,,,,,,,TestWords/KAI_LAY_TA.wav,,616e3503faa77a9b103ee397,2021-11-02_13h06.28.433,Agingstudy,2020.2.10,MacIntel,60,,,,,E,,,,,,,,,,,,,,,1,1,0.0274,0,68,68,68,1,1,OLD,OLD,,,,,,,,
,,,,,,,,,,,,,,,,TestWords/SI_VAI_CHU.wav,,616e3503faa77a9b103ee397,2021-11-02_13h06.28.433,Agingstudy,2020.2.10,MacIntel,60,,,,,E,,,,,,,,,,,,,,,2,1,0.3215,0,69,69,69,1,2,NEW,NEW,,,,,,,,
,,,,,,,,,,,,,,,,TestWords/GA_MU_ZI.wav,,616e3503faa77a9b103ee397,2021-11-02_13h06.28.433,Agingstudy,2020.2.10,MacIntel,60,,,,,E,,,,,,,,,,,,,,,1,1,0.0877,0,70,70,70,1,1,OLD,OLD,,,,,,,,
,,,,,,,,,,,,,,,,TestWords/KO_SU_FAI.wav,,616e3503faa77a9b103ee397,2021-11-02_13h06.28.433,Agingstudy,2020.2.10,MacIntel,60,,,,,E,,,,,,,,,,,,,,,1,1,0.0553,0,71,71,71,1,1,OLD,OLD,,,,,,,,
,,,,,,,,,,,,,,,,TestWords/RAI_FU_ZO.wav,,616e3503faa77a9b103ee397,2021-11-02_13h06.28.433,Agingstudy,2020.2.10,MacIntel,60,,,,,E,,,,,,,,,,,,,,,2,1,0.3207,0,72,72,72,1,2,NEW,SIMILAR,,,,,,,,
,,,,,,,,,,,,,,,,TestWords/KAI_LAY_TA.wav,,616e3503faa77a9b103ee397,2021-11-02_13h06.28.433,Agingstudy,2020.2.10,MacIntel,60,,,,,E,,,,,,,,,,,,,,,1,1,0.1449,0,73,73,73,1,1,OLD,OLD,,,,,,,,
,,,,,,,,,,,,,,,,TestWords/RAY_PA_TI.wav,,616e3503faa77a9b103ee397,2021-11-02_13h06.28.433,Agingstudy,2020.2.10,MacIntel,60,,,,,E,,,,,,,,,,,,,,,1,1,0.2546,0,74,74,74,1,1,OLD,OLD,,,,,,,,
,,,,,,,,,,,,,,,,TestWords/DAI_RU_CHI.wav,,616e3503faa77a9b103ee397,2021-11-02_13h06.28.433,Agingstudy,2020.2.10,MacIntel,60,,,,,E,,,,,,,,,,,,,,,2,0,0.169,0,75,75,75,1,1,OLD,OLD,,,,,,,,
,,,,,,,,,,,,,,,,TestWords/MO_PU_DAY.wav,,616e3503faa77a9b103ee397,2021-11-02_13h06.28.433,Agingstudy,2020.2.10,MacIntel,60,,,,,E,,,,,,,,,,,,,,,2,1,1.0413,0,76,76,76,1,2,NEW,SIMILAR,,,,,,,,
,,,,,,,,,,,,,,,,TestWords/GA_MU_ZI.wav,,616e3503faa77a9b103ee397,2021-11-02_13h06.28.433,Agingstudy,2020.2.10,MacIntel,60,,,,,E,,,,,,,,,,,,,,,1,1,0.1419,0,77,77,77,1,1,OLD,OLD,,,,,,,,
,,,,,,,,,,,,,,,,TestWords/KO_SU_FAI.wav,,616e3503faa77a9b103ee397,2021-11-02_13h06.28.433,Agingstudy,2020.2.10,MacIntel,60,,,,,E,,,,,,,,,,,,,,,2,0,0.1209,0,78,78,78,1,1,OLD,OLD,,,,,,,,
,,,,,,,,,,,,,,,,TestWords/NO_WA_BAY.wav,,616e3503faa77a9b103ee397,2021-11-02_13h06.28.433,Agingstudy,2020.2.10,MacIntel,60,,,,,E,,,,,,,,,,,,,,,2,1,0.0889,0,79,79,79,1,2,NEW,NEW,,,,,,,,
,,,,,,,,,,,,,,,,TestWords/KAI_LAY_TA.wav,,616e3503faa77a9b103ee397,2021-11-02_13h06.28.433,Agingstudy,2020.2.10,MacIntel,60,,,,,E,,,,,,,,,,,,,,,1,1,0.1709,0,80,80,80,1,1,OLD,OLD,,,,,,,,
,,,,,,,,,,,,,,,,TestWords/RAY_PA_TI.wav,,616e3503faa77a9b103ee397,2021-11-02_13h06.28.433,Agingstudy,2020.2.10,MacIntel,60,,,,,E,,,,,,,,,,,,,,,1,1,0.2618,0,81,81,81,1,1,OLD,OLD,,,,,,,,
,,,,,,,,,,,,,,,,TestWords/RAI_ZO_FU.wav,,616e3503faa77a9b103ee397,2021-11-02_13h06.28.433,Agingstudy,2020.2.10,MacIntel,60,,,,,E,,,,,,,,,,,,,,,1,0,0.5627,0,82,82,82,1,2,NEW,SIMILAR,,,,,,,,
,,,,,,,,,,,,,,,,TestWords/DAI_RU_CHI.wav,,616e3503faa77a9b103ee397,2021-11-02_13h06.28.433,Agingstudy,2020.2.10,MacIntel,60,,,,,E,,,,,,,,,,,,,,,1,1,0.1709,0,83,83,83,1,1,OLD,OLD,,,,,,,,
,,,,,,,,,,,,,,,,TestWords/HA_SI_JAI.wav,,616e3503faa77a9b103ee397,2021-11-02_13h06.28.433,Agingstudy,2020.2.10,MacIntel,60,,,,,E,,,,,,,,,,,,,,,2,1,0.2471,0,84,84,84,1,2,NEW,NEW,,,,,,,,
,,,,,,,,,,,,,,,,TestWords/KO_SU_FAI.wav,,616e3503faa77a9b103ee397,2021-11-02_13h06.28.433,Agingstudy,2020.2.10,MacIntel,60,,,,,E,,,,,,,,,,,,,,,1,1,0.3359,0,85,85,85,1,1,OLD,OLD,,,,,,,,
,,,,,,,,,,,,,,,,TestWords/KAI_LAY_TA.wav,,616e3503faa77a9b103ee397,2021-11-02_13h06.28.433,Agingstudy,2020.2.10,MacIntel,60,,,,,E,,,,,,,,,,,,,,,1,1,0.1527,0,86,86,86,1,1,OLD,OLD,,,,,,,,
,,,,,,,,,,,,,,,,TestWords/GA_MU_ZI.wav,,616e3503faa77a9b103ee397,2021-11-02_13h06.28.433,Agingstudy,2020.2.10,MacIntel,60,,,,,E,,,,,,,,,,,,,,,1,1,0.0211,0,87,87,87,1,1,OLD,OLD,,,,,,,,
,,,,,,,,,,,,,,,,TestWords/FU_ZO_RAI.wav,,616e3503faa77a9b103ee397,2021-11-02_13h06.28.433,Agingstudy,2020.2.10,MacIntel,60,,,,,E,,,,,,,,,,,,,,,1,0,0.2875,0,88,88,88,1,2,NEW,SIMILAR,,,,,,,,
,,,,,,,,,,,,,,,,TestWords/KO_SU_FAI.wav,,616e3503faa77a9b103ee397,2021-11-02_13h06.28.433,Agingstudy,2020.2.10,MacIntel,60,,,,,E,,,,,,,,,,,,,,,1,1,0.273,0,89,89,89,1,1,OLD,OLD,,,,,,,,
,,,,,,,,,,,,,,,,TestWords/KAI_LAY_TA.wav,,616e3503faa77a9b103ee397,2021-11-02_13h06.28.433,Agingstudy,2020.2.10,MacIntel,60,,,,,E,,,,,,,,,,,,,,,1,1,0.0577,0,90,90,90,1,1,OLD,OLD,,,,,,,,
,,,,,,,,,,,,,,,,TestWords/DAI_RU_CHI.wav,,616e3503faa77a9b103ee397,2021-11-02_13h06.28.433,Agingstudy,2020.2.10,MacIntel,60,,,,,E,,,,,,,,,,,,,,,1,1,0.0264,0,91,91,91,1,1,OLD,OLD,,,,,,,,
,,,,,,,,,,,,,,,,TestWords/HI_NAY_VA.wav,,616e3503faa77a9b103ee397,2021-11-02_13h06.28.433,Agingstudy,2020.2.10,MacIntel,60,,,,,E,,,,,,,,,,,,,,,2,1,0.1389,0,92,92,92,1,2,NEW,NEW,,,,,,,,
,,,,,,,,,,,,,,,,TestWords/GU_CHAI_PI.wav,,616e3503faa77a9b103ee397,2021-11-02_13h06.28.433,Agingstudy,2020.2.10,MacIntel,60,,,,,E,,,,,,,,,,,,,,,1,0,0.2895,0,93,93,93,1,2,NEW,NEW,,,,,,,,
,,,,,,,,,,,,,,,,TestWords/FU_RAI_ZO.wav,,616e3503faa77a9b103ee397,2021-11-02_13h06.28.433,Agingstudy,2020.2.10,MacIntel,60,,,,,E,,,,,,,,,,,,,,,1,0,0.1292,0,94,94,94,1,2,NEW,SIMILAR,,,,,,,,
,,,,,,,,,,,,,,,,TestWords/KO_SU_FAI.wav,,616e3503faa77a9b103ee397,2021-11-02_13h06.28.433,Agingstudy,2020.2.10,MacIntel,60,,,,,E,,,,,,,,,,,,,,,1,1,0.6665,0,95,95,95,1,1,OLD,OLD,,,,,,,,
,,,,,,,,,,,,,,,,TestWords/PAI_LU_WA.wav,,616e3503faa77a9b103ee397,2021-11-02_13h06.28.433,Agingstudy,2020.2.10,MacIntel,60,,,,,E,,,,,,,,,,,,,,,2,1,0.1592,0,96,96,96,1,2,NEW,NEW,,,,,,,,
,,,,,,,,,,,,,,,,TestWords/DAI_RU_CHI.wav,,616e3503faa77a9b103ee397,2021-11-02_13h06.28.433,Agingstudy,2020.2.10,MacIntel,60,,,,,E,,,,,,,,,,,,,,,1,1,0.0281,0,97,97,97,1,1,OLD,OLD,,,,,,,,
,,,,,,,,,,,,,,,,TestWords/FI_GU_CHA.wav,,616e3503faa77a9b103ee397,2021-11-02_13h06.28.433,Agingstudy,2020.2.10,MacIntel,60,,,,,E,,,,,,,,,,,,,,,2,1,0.025,0,98,98,98,1,2,NEW,NEW,,,,,,,,
,,,,,,,,,,,,,,,,TestWords/ZO_FU_RAI.wav,,616e3503faa77a9b103ee397,2021-11-02_13h06.28.433,Agingstudy,2020.2.10,MacIntel,60,,,,,E,,,,,,,,,,,,,,,1,0,0.2562,0,99,99,99,1,2,NEW,SIMILAR,,,,,,,,
,,,,,,,,,,,,,,,,,,616e3503faa77a9b103ee397,2021-11-02_13h06.28.433,Agingstudy,2020.2.10,MacIntel,60,,,,,,,,,,,,,,,,,,,,,,,,,,,,,,,0,0,0,0,1,,,
,,,,,,,,,,,,,,,,,,616e3503faa77a9b103ee397,2021-11-02_13h06.28.433,Agingstudy,2020.2.10,MacIntel,60,,,,,,,,,,,,,,,,,,,,,,,,,,,,,,,,,,,,return,11.5817,
