Welcome0Continue.keys,Welcome0Continue.rt,SoundCheckBegin.keys,SoundCheckBegin.rt,SoundCheckEndKey.keys,SoundCheckEndKey.rt,HeadphoneContinueKey.keys,HeadphoneContinueKey.rt,ContinueButton.keys,ContinueButton.rt,ExposureIntroKey.keys,ExposureIntroKey.rt,ExposureLoop.thisRepN,ExposureLoop.thisTrialN,ExposureLoop.thisN,ExposureLoop.thisIndex,ExposureLoop.ran,Position,Sound,SyllableFile,participant,date,expName,psychopyVersion,OS,frameRate,PauseCheckKey.keys,PauseCheckKey.rt,PauseOnOff.thisRepN,PauseOnOff.thisTrialN,PauseOnOff.thisN,PauseOnOff.thisIndex,PauseOnOff.ran
space,3.5058,space,0.8786,space,0.7369,space,1.2991,space,19.0757,space,6.6766,0,0,0,0,1,1,ru,SL_Sounds/ru.wav,,2021-07-02_16h59.38.403,Agingstudy,2020.2.10,Win32,60,,,,,,,
,,,,,,,,,,,,0,1,1,1,1,2,pu,SL_Sounds/pu.wav,,2021-07-02_16h59.38.403,Agingstudy,2020.2.10,Win32,60,,,,,,,
,,,,,,,,,,,,0,2,2,2,1,3,ni,SL_Sounds/ni.wav,,2021-07-02_16h59.38.403,Agingstudy,2020.2.10,Win32,60,,,,,,,
,,,,,,,,,,,,0,3,3,3,1,1,re,SL_Sounds/re.wav,,2021-07-02_16h59.38.403,Agingstudy,2020.2.10,Win32,60,,,,,,,
,,,,,,,,,,,,0,4,4,4,1,2,ge,SL_Sounds/ge.wav,,2021-07-02_16h59.38.403,Agingstudy,2020.2.10,Win32,60,,,,,,,
,,,,,,,,,,,,0,5,5,5,1,3,me,SL_Sounds/me.wav,,2021-07-02_16h59.38.403,Agingstudy,2020.2.10,Win32,60,,,,,,,
,,,,,,,,,,,,0,6,6,6,1,1,fe,SL_Sounds/fe.wav,,2021-07-02_16h59.38.403,Agingstudy,2020.2.10,Win32,60,,,,,,,
,,,,,,,,,,,,0,7,7,7,1,2,ti,SL_Sounds/ti.wav,,2021-07-02_16h59.38.403,Agingstudy,2020.2.10,Win32,60,,,,,,,
,,,,,,,,,,,,0,8,8,8,1,3,su,SL_Sounds/su.wav,,2021-07-02_16h59.38.403,Agingstudy,2020.2.10,Win32,60,,,,,,,
,,,,,,,,,,,,0,9,9,9,1,1,ru,SL_Sounds/ru.wav,,2021-07-02_16h59.38.403,Agingstudy,2020.2.10,Win32,60,,,,,,,
,,,,,,,,,,,,0,10,10,10,1,2,pu,SL_Sounds/pu.wav,,2021-07-02_16h59.38.403,Agingstudy,2020.2.10,Win32,60,,,,,,,
,,,,,,,,,,,,0,11,11,11,1,3,ni,SL_Sounds/ni.wav,,2021-07-02_16h59.38.403,Agingstudy,2020.2.10,Win32,60,,,,,,,
,,,,,,,,,,,,0,12,12,12,1,1,fe,SL_Sounds/fe.wav,,2021-07-02_16h59.38.403,Agingstudy,2020.2.10,Win32,60,,,,,,,
,,,,,,,,,,,,0,13,13,13,1,2,ti,SL_Sounds/ti.wav,,2021-07-02_16h59.38.403,Agingstudy,2020.2.10,Win32,60,,,,,,,
,,,,,,,,,,,,0,14,14,14,1,3,su,SL_Sounds/su.wav,,2021-07-02_16h59.38.403,Agingstudy,2020.2.10,Win32,60,,,,,,,
,,,,,,,,,,,,0,15,15,15,1,1,ru,SL_Sounds/ru.wav,,2021-07-02_16h59.38.403,Agingstudy,2020.2.10,Win32,60,,,,,,,
,,,,,,,,,,,,0,16,16,16,1,2,pu,SL_Sounds/pu.wav,,2021-07-02_16h59.38.403,Agingstudy,2020.2.10,Win32,60,,,,,,,
,,,,,,,,,,,,0,17,17,17,1,3,ni,SL_Sounds/ni.wav,,2021-07-02_16h59.38.403,Agingstudy,2020.2.10,Win32,60,,,,,,,
,,,,,,,,,,,,0,18,18,18,1,1,re,SL_Sounds/re.wav,,2021-07-02_16h59.38.403,Agingstudy,2020.2.10,Win32,60,,,,,,,
,,,,,,,,,,,,0,19,19,19,1,2,ge,SL_Sounds/ge.wav,,2021-07-02_16h59.38.403,Agingstudy,2020.2.10,Win32,60,,,,,,,
,,,,,,,,,,,,0,20,20,20,1,3,me,SL_Sounds/me.wav,,2021-07-02_16h59.38.403,Agingstudy,2020.2.10,Win32,60,,,,,,,
,,,,,,,,,,,,0,21,21,21,1,1,ta,SL_Sounds/ta.wav,,2021-07-02_16h59.38.403,Agingstudy,2020.2.10,Win32,60,,,,,,,
,,,,,,,,,,,,0,22,22,22,1,2,fu,SL_Sounds/fu.wav,,2021-07-02_16h59.38.403,Agingstudy,2020.2.10,Win32,60,,,,,,,
,,,,,,,,,,,,0,23,23,23,1,3,ko,SL_Sounds/ko.wav,,2021-07-02_16h59.38.403,Agingstudy,2020.2.10,Win32,60,,,,,,,
,,,,,,,,,,,,0,24,24,24,1,1,ru,SL_Sounds/ru.wav,,2021-07-02_16h59.38.403,Agingstudy,2020.2.10,Win32,60,,,,,,,
,,,,,,,,,,,,0,25,25,25,1,2,pu,SL_Sounds/pu.wav,,2021-07-02_16h59.38.403,Agingstudy,2020.2.10,Win32,60,,,,,,,
,,,,,,,,,,,,0,26,26,26,1,3,ni,SL_Sounds/ni.wav,,2021-07-02_16h59.38.403,Agingstudy,2020.2.10,Win32,60,,,,,,,
,,,,,,,,,,,,0,27,27,27,1,1,re,SL_Sounds/re.wav,,2021-07-02_16h59.38.403,Agingstudy,2020.2.10,Win32,60,,,,,,,
,,,,,,,,,,,,0,28,28,28,1,2,ge,SL_Sounds/ge.wav,,2021-07-02_16h59.38.403,Agingstudy,2020.2.10,Win32,60,,,,,,,
,,,,,,,,,,,,0,29,29,29,1,3,me,SL_Sounds/me.wav,,2021-07-02_16h59.38.403,Agingstudy,2020.2.10,Win32,60,,,,,,,
,,,,,,,,,,,,0,30,30,30,1,1,fe,SL_Sounds/fe.wav,,2021-07-02_16h59.38.403,Agingstudy,2020.2.10,Win32,60,,,,,,,
,,,,,,,,,,,,0,31,31,31,1,2,ti,SL_Sounds/ti.wav,,2021-07-02_16h59.38.403,Agingstudy,2020.2.10,Win32,60,,,,,,,
,,,,,,,,,,,,0,32,32,32,1,3,su,SL_Sounds/su.wav,,2021-07-02_16h59.38.403,Agingstudy,2020.2.10,Win32,60,,,,,,,
,,,,,,,,,,,,0,33,33,33,1,1,re,SL_Sounds/re.wav,,2021-07-02_16h59.38.403,Agingstudy,2020.2.10,Win32,60,,,,,,,
,,,,,,,,,,,,0,34,34,34,1,2,ge,SL_Sounds/ge.wav,,2021-07-02_16h59.38.403,Agingstudy,2020.2.10,Win32,60,,,,,,,
,,,,,,,,,,,,0,35,35,35,1,3,me,SL_Sounds/me.wav,,2021-07-02_16h59.38.403,Agingstudy,2020.2.10,Win32,60,,,,,,,
,,,,,,,,,,,,0,36,36,36,1,1,ru,SL_Sounds/ru.wav,,2021-07-02_16h59.38.403,Agingstudy,2020.2.10,Win32,60,,,,,,,
,,,,,,,,,,,,0,37,37,37,1,2,pu,SL_Sounds/pu.wav,,2021-07-02_16h59.38.403,Agingstudy,2020.2.10,Win32,60,,,,,,,
,,,,,,,,,,,,0,38,38,38,1,3,ni,SL_Sounds/ni.wav,,2021-07-02_16h59.38.403,Agingstudy,2020.2.10,Win32,60,,,,,,,
,,,,,,,,,,,,0,39,39,39,1,1,ta,SL_Sounds/ta.wav,,2021-07-02_16h59.38.403,Agingstudy,2020.2.10,Win32,60,,,,,,,
,,,,,,,,,,,,0,40,40,40,1,2,fu,SL_Sounds/fu.wav,,2021-07-02_16h59.38.403,Agingstudy,2020.2.10,Win32,60,,,,,,,
,,,,,,,,,,,,0,41,41,41,1,3,ko,SL_Sounds/ko.wav,,2021-07-02_16h59.38.403,Agingstudy,2020.2.10,Win32,60,,,,,,,
,,,,,,,,,,,,0,42,42,42,1,1,re,SL_Sounds/re.wav,,2021-07-02_16h59.38.403,Agingstudy,2020.2.10,Win32,60,,,,,,,
,,,,,,,,,,,,0,43,43,43,1,2,ge,SL_Sounds/ge.wav,,2021-07-02_16h59.38.403,Agingstudy,2020.2.10,Win32,60,,,,,,,
,,,,,,,,,,,,0,44,44,44,1,3,me,SL_Sounds/me.wav,,2021-07-02_16h59.38.403,Agingstudy,2020.2.10,Win32,60,,,,,,,
,,,,,,,,,,,,0,45,45,45,1,1,ta,SL_Sounds/ta.wav,,2021-07-02_16h59.38.403,Agingstudy,2020.2.10,Win32,60,,,,,,,
,,,,,,,,,,,,0,46,46,46,1,2,fu,SL_Sounds/fu.wav,,2021-07-02_16h59.38.403,Agingstudy,2020.2.10,Win32,60,,,,,,,
,,,,,,,,,,,,0,47,47,47,1,3,ko,SL_Sounds/ko.wav,,2021-07-02_16h59.38.403,Agingstudy,2020.2.10,Win32,60,,,,,,,
,,,,,,,,,,,,0,48,48,48,1,1,re,SL_Sounds/re.wav,,2021-07-02_16h59.38.403,Agingstudy,2020.2.10,Win32,60,,,,,,,
,,,,,,,,,,,,0,49,49,49,1,2,ge,SL_Sounds/ge.wav,,2021-07-02_16h59.38.403,Agingstudy,2020.2.10,Win32,60,,,,,,,
,,,,,,,,,,,,0,50,50,50,1,3,me,SL_Sounds/me.wav,,2021-07-02_16h59.38.403,Agingstudy,2020.2.10,Win32,60,,,,,,,
,,,,,,,,,,,,0,51,51,51,1,1,ru,SL_Sounds/ru.wav,,2021-07-02_16h59.38.403,Agingstudy,2020.2.10,Win32,60,,,,,,,
,,,,,,,,,,,,0,52,52,52,1,2,pu,SL_Sounds/pu.wav,,2021-07-02_16h59.38.403,Agingstudy,2020.2.10,Win32,60,,,,,,,
,,,,,,,,,,,,0,53,53,53,1,3,ni,SL_Sounds/ni.wav,,2021-07-02_16h59.38.403,Agingstudy,2020.2.10,Win32,60,,,,,,,
,,,,,,,,,,,,0,54,54,54,1,1,ta,SL_Sounds/ta.wav,,2021-07-02_16h59.38.403,Agingstudy,2020.2.10,Win32,60,,,,,,,
,,,,,,,,,,,,0,55,55,55,1,2,fu,SL_Sounds/fu.wav,,2021-07-02_16h59.38.403,Agingstudy,2020.2.10,Win32,60,,,,,,,
,,,,,,,,,,,,,,,,,,,,,2021-07-02_16h59.38.403,Agingstudy,2020.2.10,Win32,60,space,1.0456,0,0,0,0,1
,,,,,,,,,,,,0,56,56,56,1,3,ko,SL_Sounds/ko.wav,,2021-07-02_16h59.38.403,Agingstudy,2020.2.10,Win32,60,,,,,,,
,,,,,,,,,,,,0,57,57,57,1,1,ru,SL_Sounds/ru.wav,,2021-07-02_16h59.38.403,Agingstudy,2020.2.10,Win32,60,,,,,,,
,,,,,,,,,,,,0,58,58,58,1,2,pu,SL_Sounds/pu.wav,,2021-07-02_16h59.38.403,Agingstudy,2020.2.10,Win32,60,,,,,,,
,,,,,,,,,,,,0,59,59,59,1,3,ni,SL_Sounds/ni.wav,,2021-07-02_16h59.38.403,Agingstudy,2020.2.10,Win32,60,,,,,,,
,,,,,,,,,,,,0,60,60,60,1,1,fe,SL_Sounds/fe.wav,,2021-07-02_16h59.38.403,Agingstudy,2020.2.10,Win32,60,,,,,,,
,,,,,,,,,,,,0,61,61,61,1,2,ti,SL_Sounds/ti.wav,,2021-07-02_16h59.38.403,Agingstudy,2020.2.10,Win32,60,,,,,,,
,,,,,,,,,,,,0,62,62,62,1,3,su,SL_Sounds/su.wav,,2021-07-02_16h59.38.403,Agingstudy,2020.2.10,Win32,60,,,,,,,
,,,,,,,,,,,,0,63,63,63,1,1,ta,SL_Sounds/ta.wav,,2021-07-02_16h59.38.403,Agingstudy,2020.2.10,Win32,60,,,,,,,
,,,,,,,,,,,,0,64,64,64,1,2,fu,SL_Sounds/fu.wav,,2021-07-02_16h59.38.403,Agingstudy,2020.2.10,Win32,60,,,,,,,
,,,,,,,,,,,,0,65,65,65,1,3,ko,SL_Sounds/ko.wav,,2021-07-02_16h59.38.403,Agingstudy,2020.2.10,Win32,60,,,,,,,
,,,,,,,,,,,,0,66,66,66,1,1,ru,SL_Sounds/ru.wav,,2021-07-02_16h59.38.403,Agingstudy,2020.2.10,Win32,60,,,,,,,
,,,,,,,,,,,,0,67,67,67,1,2,pu,SL_Sounds/pu.wav,,2021-07-02_16h59.38.403,Agingstudy,2020.2.10,Win32,60,,,,,,,
,,,,,,,,,,,,0,68,68,68,1,3,ni,SL_Sounds/ni.wav,,2021-07-02_16h59.38.403,Agingstudy,2020.2.10,Win32,60,,,,,,,
,,,,,,,,,,,,0,69,69,69,1,1,re,SL_Sounds/re.wav,,2021-07-02_16h59.38.403,Agingstudy,2020.2.10,Win32,60,,,,,,,
,,,,,,,,,,,,0,70,70,70,1,2,ge,SL_Sounds/ge.wav,,2021-07-02_16h59.38.403,Agingstudy,2020.2.10,Win32,60,,,,,,,
,,,,,,,,,,,,0,71,71,71,1,3,me,SL_Sounds/me.wav,,2021-07-02_16h59.38.403,Agingstudy,2020.2.10,Win32,60,,,,,,,
,,,,,,,,,,,,0,72,72,72,1,1,fe,SL_Sounds/fe.wav,,2021-07-02_16h59.38.403,Agingstudy,2020.2.10,Win32,60,,,,,,,
,,,,,,,,,,,,0,73,73,73,1,2,ti,SL_Sounds/ti.wav,,2021-07-02_16h59.38.403,Agingstudy,2020.2.10,Win32,60,,,,,,,
,,,,,,,,,,,,0,74,74,74,1,3,su,SL_Sounds/su.wav,,2021-07-02_16h59.38.403,Agingstudy,2020.2.10,Win32,60,,,,,,,
,,,,,,,,,,,,0,75,75,75,1,1,ta,SL_Sounds/ta.wav,,2021-07-02_16h59.38.403,Agingstudy,2020.2.10,Win32,60,,,,,,,
,,,,,,,,,,,,0,76,76,76,1,2,fu,SL_Sounds/fu.wav,,2021-07-02_16h59.38.403,Agingstudy,2020.2.10,Win32,60,,,,,,,
,,,,,,,,,,,,0,77,77,77,1,3,ko,SL_Sounds/ko.wav,,2021-07-02_16h59.38.403,Agingstudy,2020.2.10,Win32,60,,,,,,,
,,,,,,,,,,,,0,78,78,78,1,1,ru,SL_Sounds/ru.wav,,2021-07-02_16h59.38.403,Agingstudy,2020.2.10,Win32,60,,,,,,,
,,,,,,,,,,,,0,79,79,79,1,2,pu,SL_Sounds/pu.wav,,2021-07-02_16h59.38.403,Agingstudy,2020.2.10,Win32,60,,,,,,,
,,,,,,,,,,,,0,80,80,80,1,3,ni,SL_Sounds/ni.wav,,2021-07-02_16h59.38.403,Agingstudy,2020.2.10,Win32,60,,,,,,,
,,,,,,,,,,,,0,81,81,81,1,1,ta,SL_Sounds/ta.wav,,2021-07-02_16h59.38.403,Agingstudy,2020.2.10,Win32,60,,,,,,,
,,,,,,,,,,,,0,82,82,82,1,2,fu,SL_Sounds/fu.wav,,2021-07-02_16h59.38.403,Agingstudy,2020.2.10,Win32,60,,,,,,,
,,,,,,,,,,,,0,83,83,83,1,3,ko,SL_Sounds/ko.wav,,2021-07-02_16h59.38.403,Agingstudy,2020.2.10,Win32,60,,,,,,,
,,,,,,,,,,,,0,84,84,84,1,1,re,SL_Sounds/re.wav,,2021-07-02_16h59.38.403,Agingstudy,2020.2.10,Win32,60,,,,,,,
,,,,,,,,,,,,0,85,85,85,1,2,ge,SL_Sounds/ge.wav,,2021-07-02_16h59.38.403,Agingstudy,2020.2.10,Win32,60,,,,,,,
,,,,,,,,,,,,0,86,86,86,1,3,me,SL_Sounds/me.wav,,2021-07-02_16h59.38.403,Agingstudy,2020.2.10,Win32,60,,,,,,,
,,,,,,,,,,,,0,87,87,87,1,1,fe,SL_Sounds/fe.wav,,2021-07-02_16h59.38.403,Agingstudy,2020.2.10,Win32,60,,,,,,,
,,,,,,,,,,,,0,88,88,88,1,2,ti,SL_Sounds/ti.wav,,2021-07-02_16h59.38.403,Agingstudy,2020.2.10,Win32,60,,,,,,,
,,,,,,,,,,,,0,89,89,89,1,3,su,SL_Sounds/su.wav,,2021-07-02_16h59.38.403,Agingstudy,2020.2.10,Win32,60,,,,,,,
,,,,,,,,,,,,0,90,90,90,1,1,ru,SL_Sounds/ru.wav,,2021-07-02_16h59.38.403,Agingstudy,2020.2.10,Win32,60,,,,,,,
,,,,,,,,,,,,0,91,91,91,1,2,pu,SL_Sounds/pu.wav,,2021-07-02_16h59.38.403,Agingstudy,2020.2.10,Win32,60,,,,,,,
,,,,,,,,,,,,0,92,92,92,1,3,ni,SL_Sounds/ni.wav,,2021-07-02_16h59.38.403,Agingstudy,2020.2.10,Win32,60,,,,,,,
,,,,,,,,,,,,0,93,93,93,1,1,fe,SL_Sounds/fe.wav,,2021-07-02_16h59.38.403,Agingstudy,2020.2.10,Win32,60,,,,,,,
,,,,,,,,,,,,0,94,94,94,1,2,ti,SL_Sounds/ti.wav,,2021-07-02_16h59.38.403,Agingstudy,2020.2.10,Win32,60,,,,,,,
,,,,,,,,,,,,0,95,95,95,1,3,su,SL_Sounds/su.wav,,2021-07-02_16h59.38.403,Agingstudy,2020.2.10,Win32,60,,,,,,,
,,,,,,,,,,,,0,96,96,96,1,1,ru,SL_Sounds/ru.wav,,2021-07-02_16h59.38.403,Agingstudy,2020.2.10,Win32,60,,,,,,,
,,,,,,,,,,,,0,97,97,97,1,2,pu,SL_Sounds/pu.wav,,2021-07-02_16h59.38.403,Agingstudy,2020.2.10,Win32,60,,,,,,,
,,,,,,,,,,,,0,98,98,98,1,3,ni,SL_Sounds/ni.wav,,2021-07-02_16h59.38.403,Agingstudy,2020.2.10,Win32,60,,,,,,,
,,,,,,,,,,,,0,99,99,99,1,1,fe,SL_Sounds/fe.wav,,2021-07-02_16h59.38.403,Agingstudy,2020.2.10,Win32,60,,,,,,,
,,,,,,,,,,,,0,100,100,100,1,2,ti,SL_Sounds/ti.wav,,2021-07-02_16h59.38.403,Agingstudy,2020.2.10,Win32,60,,,,,,,
,,,,,,,,,,,,0,101,101,101,1,3,su,SL_Sounds/su.wav,,2021-07-02_16h59.38.403,Agingstudy,2020.2.10,Win32,60,,,,,,,
,,,,,,,,,,,,0,102,102,102,1,1,ta,SL_Sounds/ta.wav,,2021-07-02_16h59.38.403,Agingstudy,2020.2.10,Win32,60,,,,,,,
,,,,,,,,,,,,0,103,103,103,1,2,fu,SL_Sounds/fu.wav,,2021-07-02_16h59.38.403,Agingstudy,2020.2.10,Win32,60,,,,,,,
,,,,,,,,,,,,0,104,104,104,1,3,ko,SL_Sounds/ko.wav,,2021-07-02_16h59.38.403,Agingstudy,2020.2.10,Win32,60,,,,,,,
,,,,,,,,,,,,0,105,105,105,1,1,re,SL_Sounds/re.wav,,2021-07-02_16h59.38.403,Agingstudy,2020.2.10,Win32,60,,,,,,,
,,,,,,,,,,,,0,106,106,106,1,2,ge,SL_Sounds/ge.wav,,2021-07-02_16h59.38.403,Agingstudy,2020.2.10,Win32,60,,,,,,,
,,,,,,,,,,,,0,107,107,107,1,3,me,SL_Sounds/me.wav,,2021-07-02_16h59.38.403,Agingstudy,2020.2.10,Win32,60,,,,,,,
,,,,,,,,,,,,0,108,108,108,1,1,fe,SL_Sounds/fe.wav,,2021-07-02_16h59.38.403,Agingstudy,2020.2.10,Win32,60,,,,,,,
,,,,,,,,,,,,0,109,109,109,1,2,ti,SL_Sounds/ti.wav,,2021-07-02_16h59.38.403,Agingstudy,2020.2.10,Win32,60,,,,,,,
,,,,,,,,,,,,0,110,110,110,1,3,su,SL_Sounds/su.wav,,2021-07-02_16h59.38.403,Agingstudy,2020.2.10,Win32,60,,,,,,,
,,,,,,,,,,,,0,111,111,111,1,1,re,SL_Sounds/re.wav,,2021-07-02_16h59.38.403,Agingstudy,2020.2.10,Win32,60,,,,,,,
,,,,,,,,,,,,0,112,112,112,1,2,ge,SL_Sounds/ge.wav,,2021-07-02_16h59.38.403,Agingstudy,2020.2.10,Win32,60,,,,,,,
,,,,,,,,,,,,0,113,113,113,1,3,me,SL_Sounds/me.wav,,2021-07-02_16h59.38.403,Agingstudy,2020.2.10,Win32,60,,,,,,,
,,,,,,,,,,,,0,114,114,114,1,1,ta,SL_Sounds/ta.wav,,2021-07-02_16h59.38.403,Agingstudy,2020.2.10,Win32,60,,,,,,,
,,,,,,,,,,,,0,115,115,115,1,2,fu,SL_Sounds/fu.wav,,2021-07-02_16h59.38.403,Agingstudy,2020.2.10,Win32,60,,,,,,,
,,,,,,,,,,,,0,116,116,116,1,3,ko,SL_Sounds/ko.wav,,2021-07-02_16h59.38.403,Agingstudy,2020.2.10,Win32,60,,,,,,,
,,,,,,,,,,,,0,117,117,117,1,1,fe,SL_Sounds/fe.wav,,2021-07-02_16h59.38.403,Agingstudy,2020.2.10,Win32,60,,,,,,,
,,,,,,,,,,,,0,118,118,118,1,2,ti,SL_Sounds/ti.wav,,2021-07-02_16h59.38.403,Agingstudy,2020.2.10,Win32,60,,,,,,,
,,,,,,,,,,,,0,119,119,119,1,3,su,SL_Sounds/su.wav,,2021-07-02_16h59.38.403,Agingstudy,2020.2.10,Win32,60,,,,,,,
,,,,,,,,,,,,0,120,120,120,1,1,re,SL_Sounds/re.wav,,2021-07-02_16h59.38.403,Agingstudy,2020.2.10,Win32,60,,,,,,,
,,,,,,,,,,,,0,121,121,121,1,2,ge,SL_Sounds/ge.wav,,2021-07-02_16h59.38.403,Agingstudy,2020.2.10,Win32,60,,,,,,,
,,,,,,,,,,,,,,,,,,,,,2021-07-02_16h59.38.403,Agingstudy,2020.2.10,Win32,60,space,0.7598,0,0,0,0,1
,,,,,,,,,,,,0,122,122,122,1,3,me,SL_Sounds/me.wav,,2021-07-02_16h59.38.403,Agingstudy,2020.2.10,Win32,60,,,,,,,
,,,,,,,,,,,,0,123,123,123,1,1,ta,SL_Sounds/ta.wav,,2021-07-02_16h59.38.403,Agingstudy,2020.2.10,Win32,60,,,,,,,
,,,,,,,,,,,,0,124,124,124,1,2,fu,SL_Sounds/fu.wav,,2021-07-02_16h59.38.403,Agingstudy,2020.2.10,Win32,60,,,,,,,
,,,,,,,,,,,,0,125,125,125,1,3,ko,SL_Sounds/ko.wav,,2021-07-02_16h59.38.403,Agingstudy,2020.2.10,Win32,60,,,,,,,
,,,,,,,,,,,,0,126,126,126,1,1,fe,SL_Sounds/fe.wav,,2021-07-02_16h59.38.403,Agingstudy,2020.2.10,Win32,60,,,,,,,
,,,,,,,,,,,,0,127,127,127,1,2,ti,SL_Sounds/ti.wav,,2021-07-02_16h59.38.403,Agingstudy,2020.2.10,Win32,60,,,,,,,
,,,,,,,,,,,,0,128,128,128,1,3,su,SL_Sounds/su.wav,,2021-07-02_16h59.38.403,Agingstudy,2020.2.10,Win32,60,,,,,,,
,,,,,,,,,,,,0,129,129,129,1,1,re,SL_Sounds/re.wav,,2021-07-02_16h59.38.403,Agingstudy,2020.2.10,Win32,60,,,,,,,
,,,,,,,,,,,,0,130,130,130,1,2,ge,SL_Sounds/ge.wav,,2021-07-02_16h59.38.403,Agingstudy,2020.2.10,Win32,60,,,,,,,
,,,,,,,,,,,,0,131,131,131,1,3,me,SL_Sounds/me.wav,,2021-07-02_16h59.38.403,Agingstudy,2020.2.10,Win32,60,,,,,,,
,,,,,,,,,,,,0,132,132,132,1,1,ru,SL_Sounds/ru.wav,,2021-07-02_16h59.38.403,Agingstudy,2020.2.10,Win32,60,,,,,,,
,,,,,,,,,,,,0,133,133,133,1,2,pu,SL_Sounds/pu.wav,,2021-07-02_16h59.38.403,Agingstudy,2020.2.10,Win32,60,,,,,,,
,,,,,,,,,,,,0,134,134,134,1,3,ni,SL_Sounds/ni.wav,,2021-07-02_16h59.38.403,Agingstudy,2020.2.10,Win32,60,,,,,,,
,,,,,,,,,,,,0,135,135,135,1,1,re,SL_Sounds/re.wav,,2021-07-02_16h59.38.403,Agingstudy,2020.2.10,Win32,60,,,,,,,
,,,,,,,,,,,,0,136,136,136,1,2,ge,SL_Sounds/ge.wav,,2021-07-02_16h59.38.403,Agingstudy,2020.2.10,Win32,60,,,,,,,
,,,,,,,,,,,,0,137,137,137,1,3,me,SL_Sounds/me.wav,,2021-07-02_16h59.38.403,Agingstudy,2020.2.10,Win32,60,,,,,,,
,,,,,,,,,,,,0,138,138,138,1,1,ta,SL_Sounds/ta.wav,,2021-07-02_16h59.38.403,Agingstudy,2020.2.10,Win32,60,,,,,,,
,,,,,,,,,,,,0,139,139,139,1,2,fu,SL_Sounds/fu.wav,,2021-07-02_16h59.38.403,Agingstudy,2020.2.10,Win32,60,,,,,,,
,,,,,,,,,,,,0,140,140,140,1,3,ko,SL_Sounds/ko.wav,,2021-07-02_16h59.38.403,Agingstudy,2020.2.10,Win32,60,,,,,,,
,,,,,,,,,,,,0,141,141,141,1,1,re,SL_Sounds/re.wav,,2021-07-02_16h59.38.403,Agingstudy,2020.2.10,Win32,60,,,,,,,
,,,,,,,,,,,,0,142,142,142,1,2,ge,SL_Sounds/ge.wav,,2021-07-02_16h59.38.403,Agingstudy,2020.2.10,Win32,60,,,,,,,
,,,,,,,,,,,,0,143,143,143,1,3,me,SL_Sounds/me.wav,,2021-07-02_16h59.38.403,Agingstudy,2020.2.10,Win32,60,,,,,,,
,,,,,,,,,,,,0,144,144,144,1,1,ru,SL_Sounds/ru.wav,,2021-07-02_16h59.38.403,Agingstudy,2020.2.10,Win32,60,,,,,,,
,,,,,,,,,,,,0,145,145,145,1,2,pu,SL_Sounds/pu.wav,,2021-07-02_16h59.38.403,Agingstudy,2020.2.10,Win32,60,,,,,,,
,,,,,,,,,,,,,,,,,,,,,2021-07-02_16h59.38.403,Agingstudy,2020.2.10,Win32,60,space,1.6061,0,0,0,0,1
,,,,,,,,,,,,0,146,146,146,1,3,ni,SL_Sounds/ni.wav,,2021-07-02_16h59.38.403,Agingstudy,2020.2.10,Win32,60,,,,,,,
,,,,,,,,,,,,0,147,147,147,1,1,ta,SL_Sounds/ta.wav,,2021-07-02_16h59.38.403,Agingstudy,2020.2.10,Win32,60,,,,,,,
,,,,,,,,,,,,0,148,148,148,1,2,fu,SL_Sounds/fu.wav,,2021-07-02_16h59.38.403,Agingstudy,2020.2.10,Win32,60,,,,,,,
,,,,,,,,,,,,0,149,149,149,1,3,ko,SL_Sounds/ko.wav,,2021-07-02_16h59.38.403,Agingstudy,2020.2.10,Win32,60,,,,,,,
,,,,,,,,,,,,0,150,150,150,1,1,fe,SL_Sounds/fe.wav,,2021-07-02_16h59.38.403,Agingstudy,2020.2.10,Win32,60,,,,,,,
,,,,,,,,,,,,0,151,151,151,1,2,ti,SL_Sounds/ti.wav,,2021-07-02_16h59.38.403,Agingstudy,2020.2.10,Win32,60,,,,,,,
,,,,,,,,,,,,0,152,152,152,1,3,su,SL_Sounds/su.wav,,2021-07-02_16h59.38.403,Agingstudy,2020.2.10,Win32,60,,,,,,,
,,,,,,,,,,,,0,153,153,153,1,1,ru,SL_Sounds/ru.wav,,2021-07-02_16h59.38.403,Agingstudy,2020.2.10,Win32,60,,,,,,,
,,,,,,,,,,,,0,154,154,154,1,2,pu,SL_Sounds/pu.wav,,2021-07-02_16h59.38.403,Agingstudy,2020.2.10,Win32,60,,,,,,,
,,,,,,,,,,,,0,155,155,155,1,3,ni,SL_Sounds/ni.wav,,2021-07-02_16h59.38.403,Agingstudy,2020.2.10,Win32,60,,,,,,,
,,,,,,,,,,,,0,156,156,156,1,1,fe,SL_Sounds/fe.wav,,2021-07-02_16h59.38.403,Agingstudy,2020.2.10,Win32,60,,,,,,,
,,,,,,,,,,,,0,157,157,157,1,2,ti,SL_Sounds/ti.wav,,2021-07-02_16h59.38.403,Agingstudy,2020.2.10,Win32,60,,,,,,,
,,,,,,,,,,,,0,158,158,158,1,3,su,SL_Sounds/su.wav,,2021-07-02_16h59.38.403,Agingstudy,2020.2.10,Win32,60,,,,,,,
,,,,,,,,,,,,0,159,159,159,1,1,ta,SL_Sounds/ta.wav,,2021-07-02_16h59.38.403,Agingstudy,2020.2.10,Win32,60,,,,,,,
,,,,,,,,,,,,0,160,160,160,1,2,fu,SL_Sounds/fu.wav,,2021-07-02_16h59.38.403,Agingstudy,2020.2.10,Win32,60,,,,,,,
,,,,,,,,,,,,0,161,161,161,1,3,ko,SL_Sounds/ko.wav,,2021-07-02_16h59.38.403,Agingstudy,2020.2.10,Win32,60,,,,,,,
,,,,,,,,,,,,0,162,162,162,1,1,fe,SL_Sounds/fe.wav,,2021-07-02_16h59.38.403,Agingstudy,2020.2.10,Win32,60,,,,,,,
,,,,,,,,,,,,0,163,163,163,1,2,ti,SL_Sounds/ti.wav,,2021-07-02_16h59.38.403,Agingstudy,2020.2.10,Win32,60,,,,,,,
,,,,,,,,,,,,0,164,164,164,1,3,su,SL_Sounds/su.wav,,2021-07-02_16h59.38.403,Agingstudy,2020.2.10,Win32,60,,,,,,,
,,,,,,,,,,,,0,165,165,165,1,1,re,SL_Sounds/re.wav,,2021-07-02_16h59.38.403,Agingstudy,2020.2.10,Win32,60,,,,,,,
,,,,,,,,,,,,0,166,166,166,1,2,ge,SL_Sounds/ge.wav,,2021-07-02_16h59.38.403,Agingstudy,2020.2.10,Win32,60,,,,,,,
,,,,,,,,,,,,0,167,167,167,1,3,me,SL_Sounds/me.wav,,2021-07-02_16h59.38.403,Agingstudy,2020.2.10,Win32,60,,,,,,,
,,,,,,,,,,,,0,168,168,168,1,1,ta,SL_Sounds/ta.wav,,2021-07-02_16h59.38.403,Agingstudy,2020.2.10,Win32,60,,,,,,,
,,,,,,,,,,,,0,169,169,169,1,2,fu,SL_Sounds/fu.wav,,2021-07-02_16h59.38.403,Agingstudy,2020.2.10,Win32,60,,,,,,,
,,,,,,,,,,,,0,170,170,170,1,3,ko,SL_Sounds/ko.wav,,2021-07-02_16h59.38.403,Agingstudy,2020.2.10,Win32,60,,,,,,,
,,,,,,,,,,,,0,171,171,171,1,1,fe,SL_Sounds/fe.wav,,2021-07-02_16h59.38.403,Agingstudy,2020.2.10,Win32,60,,,,,,,
,,,,,,,,,,,,0,172,172,172,1,2,ti,SL_Sounds/ti.wav,,2021-07-02_16h59.38.403,Agingstudy,2020.2.10,Win32,60,,,,,,,
,,,,,,,,,,,,0,173,173,173,1,3,su,SL_Sounds/su.wav,,2021-07-02_16h59.38.403,Agingstudy,2020.2.10,Win32,60,,,,,,,
,,,,,,,,,,,,0,174,174,174,1,1,ta,SL_Sounds/ta.wav,,2021-07-02_16h59.38.403,Agingstudy,2020.2.10,Win32,60,,,,,,,
,,,,,,,,,,,,0,175,175,175,1,2,fu,SL_Sounds/fu.wav,,2021-07-02_16h59.38.403,Agingstudy,2020.2.10,Win32,60,,,,,,,
,,,,,,,,,,,,,,,,,,,,,2021-07-02_16h59.38.403,Agingstudy,2020.2.10,Win32,60,space,0.6032,0,0,0,0,1
,,,,,,,,,,,,0,176,176,176,1,3,ko,SL_Sounds/ko.wav,,2021-07-02_16h59.38.403,Agingstudy,2020.2.10,Win32,60,,,,,,,
,,,,,,,,,,,,0,177,177,177,1,1,ru,SL_Sounds/ru.wav,,2021-07-02_16h59.38.403,Agingstudy,2020.2.10,Win32,60,,,,,,,
,,,,,,,,,,,,0,178,178,178,1,2,pu,SL_Sounds/pu.wav,,2021-07-02_16h59.38.403,Agingstudy,2020.2.10,Win32,60,,,,,,,
,,,,,,,,,,,,0,179,179,179,1,3,ni,SL_Sounds/ni.wav,,2021-07-02_16h59.38.403,Agingstudy,2020.2.10,Win32,60,,,,,,,
,,,,,,,,,,,,0,180,180,180,1,1,re,SL_Sounds/re.wav,,2021-07-02_16h59.38.403,Agingstudy,2020.2.10,Win32,60,,,,,,,
,,,,,,,,,,,,0,181,181,181,1,2,ge,SL_Sounds/ge.wav,,2021-07-02_16h59.38.403,Agingstudy,2020.2.10,Win32,60,,,,,,,
,,,,,,,,,,,,0,182,182,182,1,3,me,SL_Sounds/me.wav,,2021-07-02_16h59.38.403,Agingstudy,2020.2.10,Win32,60,,,,,,,
,,,,,,,,,,,,0,183,183,183,1,1,ru,SL_Sounds/ru.wav,,2021-07-02_16h59.38.403,Agingstudy,2020.2.10,Win32,60,,,,,,,
,,,,,,,,,,,,0,184,184,184,1,2,pu,SL_Sounds/pu.wav,,2021-07-02_16h59.38.403,Agingstudy,2020.2.10,Win32,60,,,,,,,
,,,,,,,,,,,,0,185,185,185,1,3,ni,SL_Sounds/ni.wav,,2021-07-02_16h59.38.403,Agingstudy,2020.2.10,Win32,60,,,,,,,
,,,,,,,,,,,,0,186,186,186,1,1,re,SL_Sounds/re.wav,,2021-07-02_16h59.38.403,Agingstudy,2020.2.10,Win32,60,,,,,,,
,,,,,,,,,,,,0,187,187,187,1,2,ge,SL_Sounds/ge.wav,,2021-07-02_16h59.38.403,Agingstudy,2020.2.10,Win32,60,,,,,,,
,,,,,,,,,,,,0,188,188,188,1,3,me,SL_Sounds/me.wav,,2021-07-02_16h59.38.403,Agingstudy,2020.2.10,Win32,60,,,,,,,
,,,,,,,,,,,,0,189,189,189,1,1,fe,SL_Sounds/fe.wav,,2021-07-02_16h59.38.403,Agingstudy,2020.2.10,Win32,60,,,,,,,
,,,,,,,,,,,,0,190,190,190,1,2,ti,SL_Sounds/ti.wav,,2021-07-02_16h59.38.403,Agingstudy,2020.2.10,Win32,60,,,,,,,
,,,,,,,,,,,,0,191,191,191,1,3,su,SL_Sounds/su.wav,,2021-07-02_16h59.38.403,Agingstudy,2020.2.10,Win32,60,,,,,,,
,,,,,,,,,,,,0,192,192,192,1,1,re,SL_Sounds/re.wav,,2021-07-02_16h59.38.403,Agingstudy,2020.2.10,Win32,60,,,,,,,
,,,,,,,,,,,,0,193,193,193,1,2,ge,SL_Sounds/ge.wav,,2021-07-02_16h59.38.403,Agingstudy,2020.2.10,Win32,60,,,,,,,
,,,,,,,,,,,,0,194,194,194,1,3,me,SL_Sounds/me.wav,,2021-07-02_16h59.38.403,Agingstudy,2020.2.10,Win32,60,,,,,,,
,,,,,,,,,,,,0,195,195,195,1,1,fe,SL_Sounds/fe.wav,,2021-07-02_16h59.38.403,Agingstudy,2020.2.10,Win32,60,,,,,,,
,,,,,,,,,,,,0,196,196,196,1,2,ti,SL_Sounds/ti.wav,,2021-07-02_16h59.38.403,Agingstudy,2020.2.10,Win32,60,,,,,,,
,,,,,,,,,,,,0,197,197,197,1,3,su,SL_Sounds/su.wav,,2021-07-02_16h59.38.403,Agingstudy,2020.2.10,Win32,60,,,,,,,
,,,,,,,,,,,,0,198,198,198,1,1,ru,SL_Sounds/ru.wav,,2021-07-02_16h59.38.403,Agingstudy,2020.2.10,Win32,60,,,,,,,
,,,,,,,,,,,,0,199,199,199,1,2,pu,SL_Sounds/pu.wav,,2021-07-02_16h59.38.403,Agingstudy,2020.2.10,Win32,60,,,,,,,
,,,,,,,,,,,,0,200,200,200,1,3,ni,SL_Sounds/ni.wav,,2021-07-02_16h59.38.403,Agingstudy,2020.2.10,Win32,60,,,,,,,
,,,,,,,,,,,,0,201,201,201,1,1,fe,SL_Sounds/fe.wav,,2021-07-02_16h59.38.403,Agingstudy,2020.2.10,Win32,60,,,,,,,
,,,,,,,,,,,,0,202,202,202,1,2,ti,SL_Sounds/ti.wav,,2021-07-02_16h59.38.403,Agingstudy,2020.2.10,Win32,60,,,,,,,
,,,,,,,,,,,,0,203,203,203,1,3,su,SL_Sounds/su.wav,,2021-07-02_16h59.38.403,Agingstudy,2020.2.10,Win32,60,,,,,,,
