Welcome0Continue.keys,Welcome0Continue.rt,SoundCheckBegin.keys,SoundCheckBegin.rt,SoundCheckEndKey.keys,SoundCheckEndKey.rt,HeadphoneContinueKey.keys,HeadphoneContinueKey.rt,CheckResp.keys,CheckResp.corr,CheckResp.rt,HeadphoneLoop.thisRepN,HeadphoneLoop.thisTrialN,HeadphoneLoop.thisN,HeadphoneLoop.thisIndex,HeadphoneLoop.ran,File,Correct,participant,date,expName,psychopyVersion,OS,frameRate,ContinueKey8.keys,ContinueKey8.rt,MSTWelcomeContKey.keys,MSTWelcomeContKey.rt,Condition,MSTTrainIntroKey.keys,MSTTrainIntroKey.rt,MSTTrainKeys.keys,MSTTrainKeys.corr,MSTTrainKeys.rt,MSTTrainLoop.thisRepN,MSTTrainLoop.thisTrialN,MSTTrainLoop.thisN,MSTTrainLoop.thisIndex,MSTTrainLoop.ran,SoundFile,Type,MSTTestBeginKey.keys,MSTTestBeginKey.rt,MST_resp.keys,MST_resp.corr,MST_resp.rt,MSTPlayLoop.thisRepN,MSTPlayLoop.thisTrialN,MSTPlayLoop.thisN,MSTPlayLoop.thisIndex,MSTPlayLoop.ran,WordCorrect,Correct_type,WordType,MSTLoop.thisRepN,MSTLoop.thisTrialN,MSTLoop.thisN,MSTLoop.thisIndex,MSTLoop.ran,EndAllKey.keys,EndAllKey.rt,FeedbackResp.text
space,7.2018,space,5.1316,space,19.4157,space,7.307,2,1,8.5471,0,0,0,3,1,Headphone/t2_2.wav,2,5eb4841544c2df2f0190e8a0,2021-07-14_16h10.57.230,Agingstudy,2020.2.10,MacIntel,60,,,,,,,,,,,,,,,,,,,,,,,,,,,,,,,,,,,,,,
,,,,,,,,3,1,26.1415,0,1,1,5,1,Headphone/t3_2.wav,3,5eb4841544c2df2f0190e8a0,2021-07-14_16h10.57.230,Agingstudy,2020.2.10,MacIntel,60,,,,,,,,,,,,,,,,,,,,,,,,,,,,,,,,,,,,,,
,,,,,,,,1,1,0.505,0,2,2,0,1,Headphone/t1_1.wav,1,5eb4841544c2df2f0190e8a0,2021-07-14_16h10.57.230,Agingstudy,2020.2.10,MacIntel,60,,,,,,,,,,,,,,,,,,,,,,,,,,,,,,,,,,,,,,
,,,,,,,,2,1,0.3896,0,3,3,2,1,Headphone/t2_1.wav,2,5eb4841544c2df2f0190e8a0,2021-07-14_16h10.57.230,Agingstudy,2020.2.10,MacIntel,60,,,,,,,,,,,,,,,,,,,,,,,,,,,,,,,,,,,,,,
,,,,,,,,3,1,0.3685,0,4,4,4,1,Headphone/t3_1.wav,3,5eb4841544c2df2f0190e8a0,2021-07-14_16h10.57.230,Agingstudy,2020.2.10,MacIntel,60,,,,,,,,,,,,,,,,,,,,,,,,,,,,,,,,,,,,,,
,,,,,,,,1,1,0.6156,0,5,5,1,1,Headphone/t1_2.wav,1,5eb4841544c2df2f0190e8a0,2021-07-14_16h10.57.230,Agingstudy,2020.2.10,MacIntel,60,,,,,,,,,,,,,,,,,,,,,,,,,,,,,,,,,,,,,,
,,,,,,,,,,,,,,,,,2,5eb4841544c2df2f0190e8a0,2021-07-14_16h10.57.230,Agingstudy,2020.2.10,MacIntel,60,space,20.6365,space,10.247,1,space,18.4181,2,1,5.0078,0,0,0,0,1,Training/FO_YI_LAY.wav,NEW,,,,,,,,,,,,,,,,,,,,,
,,,,,,,,,,,,,,,,,1,5eb4841544c2df2f0190e8a0,2021-07-14_16h10.57.230,Agingstudy,2020.2.10,MacIntel,60,,,,,,,,1,1,2.8819,0,1,1,1,1,Training/FO_YI_LAY.wav,OLD,,,,,,,,,,,,,,,,,,,,,
,,,,,,,,,,,,,,,,,2,5eb4841544c2df2f0190e8a0,2021-07-14_16h10.57.230,Agingstudy,2020.2.10,MacIntel,60,,,,,,,,2,1,1.1797,0,2,2,2,1,Training/YO_BU_JAY.wav,NEW,,,,,,,,,,,,,,,,,,,,,
,,,,,,,,,,,,,,,,,2,5eb4841544c2df2f0190e8a0,2021-07-14_16h10.57.230,Agingstudy,2020.2.10,MacIntel,60,,,,,,,,2,1,3.4304,0,3,3,3,1,Training/JAY_YO_BU.wav,SIMILAR,,,,,,,,,,,,,,,,,,,,,
,,,,,,,,,,,,,,,,,1,5eb4841544c2df2f0190e8a0,2021-07-14_16h10.57.230,Agingstudy,2020.2.10,MacIntel,60,,,,,,,,1,1,1.2639,0,4,4,4,1,Training/FO_YI_LAY.wav,OLD,,,,,,,,,,,,,,,,,,,,,
,,,,,,,,,,,,,,,,TestWords/CHU_LA_PAY.wav,,5eb4841544c2df2f0190e8a0,2021-07-14_16h10.57.230,Agingstudy,2020.2.10,MacIntel,60,,,,,D,,,,,,,,,,,,,space,5.2457,2,1,1.8066,0,0,0,0,1,2,NEW,NEW,,,,,,,,
,,,,,,,,,,,,,,,,TestWords/FI_GU_CHA.wav,,5eb4841544c2df2f0190e8a0,2021-07-14_16h10.57.230,Agingstudy,2020.2.10,MacIntel,60,,,,,D,,,,,,,,,,,,,,,1,0,0.71,0,1,1,1,1,2,NEW,NEW,,,,,,,,
,,,,,,,,,,,,,,,,TestWords/RAI_ZO_FU.wav,,5eb4841544c2df2f0190e8a0,2021-07-14_16h10.57.230,Agingstudy,2020.2.10,MacIntel,60,,,,,D,,,,,,,,,,,,,,,2,1,2.929,0,2,2,2,1,2,NEW,NEW,,,,,,,,
,,,,,,,,,,,,,,,,TestWords/DAI_RU_CHI.wav,,5eb4841544c2df2f0190e8a0,2021-07-14_16h10.57.230,Agingstudy,2020.2.10,MacIntel,60,,,,,D,,,,,,,,,,,,,,,2,1,1.2785,0,3,3,3,1,2,NEW,NEW,,,,,,,,
,,,,,,,,,,,,,,,,TestWords/GA_MU_ZI.wav,,5eb4841544c2df2f0190e8a0,2021-07-14_16h10.57.230,Agingstudy,2020.2.10,MacIntel,60,,,,,D,,,,,,,,,,,,,,,2,1,0.4662,0,4,4,4,1,2,NEW,NEW,,,,,,,,
,,,,,,,,,,,,,,,,TestWords/DA_CHU_VAI.wav,,5eb4841544c2df2f0190e8a0,2021-07-14_16h10.57.230,Agingstudy,2020.2.10,MacIntel,60,,,,,D,,,,,,,,,,,,,,,2,1,2.3968,0,5,5,5,1,2,NEW,NEW,,,,,,,,
,,,,,,,,,,,,,,,,TestWords/ZO_RAI_FU.wav,,5eb4841544c2df2f0190e8a0,2021-07-14_16h10.57.230,Agingstudy,2020.2.10,MacIntel,60,,,,,D,,,,,,,,,,,,,,,2,1,0.6754,0,6,6,6,1,2,NEW,SIMILAR,,,,,,,,
,,,,,,,,,,,,,,,,TestWords/BA_KAY_LI.wav,,5eb4841544c2df2f0190e8a0,2021-07-14_16h10.57.230,Agingstudy,2020.2.10,MacIntel,60,,,,,D,,,,,,,,,,,,,,,1,0,1.0995,0,7,7,7,1,2,NEW,NEW,,,,,,,,
,,,,,,,,,,,,,,,,TestWords/VAI_HO_LA.wav,,5eb4841544c2df2f0190e8a0,2021-07-14_16h10.57.230,Agingstudy,2020.2.10,MacIntel,60,,,,,D,,,,,,,,,,,,,,,2,1,1.2171,0,8,8,8,1,2,NEW,NEW,,,,,,,,
,,,,,,,,,,,,,,,,TestWords/DAI_RU_CHI.wav,,5eb4841544c2df2f0190e8a0,2021-07-14_16h10.57.230,Agingstudy,2020.2.10,MacIntel,60,,,,,D,,,,,,,,,,,,,,,1,1,0.6939,0,9,9,9,1,1,OLD,OLD,,,,,,,,
,,,,,,,,,,,,,,,,TestWords/RAY_PA_TI.wav,,5eb4841544c2df2f0190e8a0,2021-07-14_16h10.57.230,Agingstudy,2020.2.10,MacIntel,60,,,,,D,,,,,,,,,,,,,,,2,1,1.8547,0,10,10,10,1,2,NEW,NEW,,,,,,,,
,,,,,,,,,,,,,,,,TestWords/NO_WA_BAY.wav,,5eb4841544c2df2f0190e8a0,2021-07-14_16h10.57.230,Agingstudy,2020.2.10,MacIntel,60,,,,,D,,,,,,,,,,,,,,,2,1,0.6012,0,11,11,11,1,2,NEW,NEW,,,,,,,,
,,,,,,,,,,,,,,,,TestWords/GA_MU_ZI.wav,,5eb4841544c2df2f0190e8a0,2021-07-14_16h10.57.230,Agingstudy,2020.2.10,MacIntel,60,,,,,D,,,,,,,,,,,,,,,2,0,2.1951,0,12,12,12,1,1,OLD,OLD,,,,,,,,
,,,,,,,,,,,,,,,,TestWords/WAI_VU_NA.wav,,5eb4841544c2df2f0190e8a0,2021-07-14_16h10.57.230,Agingstudy,2020.2.10,MacIntel,60,,,,,D,,,,,,,,,,,,,,,2,1,1.0439,0,13,13,13,1,2,NEW,NEW,,,,,,,,
,,,,,,,,,,,,,,,,TestWords/KAY_LI_BA.wav,,5eb4841544c2df2f0190e8a0,2021-07-14_16h10.57.230,Agingstudy,2020.2.10,MacIntel,60,,,,,D,,,,,,,,,,,,,,,1,0,1.8428,0,14,14,14,1,2,NEW,SIMILAR,,,,,,,,
,,,,,,,,,,,,,,,,TestWords/FU_RAI_ZO.wav,,5eb4841544c2df2f0190e8a0,2021-07-14_16h10.57.230,Agingstudy,2020.2.10,MacIntel,60,,,,,D,,,,,,,,,,,,,,,1,0,0.6087,0,15,15,15,1,2,NEW,SIMILAR,,,,,,,,
,,,,,,,,,,,,,,,,TestWords/KAI_LAY_TA.wav,,5eb4841544c2df2f0190e8a0,2021-07-14_16h10.57.230,Agingstudy,2020.2.10,MacIntel,60,,,,,D,,,,,,,,,,,,,,,2,1,1.5235,0,16,16,16,1,2,NEW,NEW,,,,,,,,
,,,,,,,,,,,,,,,,TestWords/RAY_PA_TI.wav,,5eb4841544c2df2f0190e8a0,2021-07-14_16h10.57.230,Agingstudy,2020.2.10,MacIntel,60,,,,,D,,,,,,,,,,,,,,,1,1,0.5497,0,17,17,17,1,1,OLD,OLD,,,,,,,,
,,,,,,,,,,,,,,,,TestWords/DAI_RU_CHI.wav,,5eb4841544c2df2f0190e8a0,2021-07-14_16h10.57.230,Agingstudy,2020.2.10,MacIntel,60,,,,,D,,,,,,,,,,,,,,,2,0,2.8639,0,18,18,18,1,1,OLD,OLD,,,,,,,,
,,,,,,,,,,,,,,,,TestWords/WAI_NA_VU.wav,,5eb4841544c2df2f0190e8a0,2021-07-14_16h10.57.230,Agingstudy,2020.2.10,MacIntel,60,,,,,D,,,,,,,,,,,,,,,1,0,0.3667,0,19,19,19,1,2,NEW,SIMILAR,,,,,,,,
,,,,,,,,,,,,,,,,TestWords/GA_MU_ZI.wav,,5eb4841544c2df2f0190e8a0,2021-07-14_16h10.57.230,Agingstudy,2020.2.10,MacIntel,60,,,,,D,,,,,,,,,,,,,,,2,0,0.8734,0,20,20,20,1,1,OLD,OLD,,,,,,,,
,,,,,,,,,,,,,,,,TestWords/KAY_BA_LI.wav,,5eb4841544c2df2f0190e8a0,2021-07-14_16h10.57.230,Agingstudy,2020.2.10,MacIntel,60,,,,,D,,,,,,,,,,,,,,,1,0,0.8238,0,21,21,21,1,2,NEW,SIMILAR,,,,,,,,
,,,,,,,,,,,,,,,,TestWords/KAI_LAY_TA.wav,,5eb4841544c2df2f0190e8a0,2021-07-14_16h10.57.230,Agingstudy,2020.2.10,MacIntel,60,,,,,D,,,,,,,,,,,,,,,2,0,1.3678,0,22,22,22,1,1,OLD,OLD,,,,,,,,
,,,,,,,,,,,,,,,,TestWords/FU_ZO_RAI.wav,,5eb4841544c2df2f0190e8a0,2021-07-14_16h10.57.230,Agingstudy,2020.2.10,MacIntel,60,,,,,D,,,,,,,,,,,,,,,2,1,1.0915,0,23,23,23,1,2,NEW,SIMILAR,,,,,,,,
,,,,,,,,,,,,,,,,TestWords/RAY_PA_TI.wav,,5eb4841544c2df2f0190e8a0,2021-07-14_16h10.57.230,Agingstudy,2020.2.10,MacIntel,60,,,,,D,,,,,,,,,,,,,,,1,1,0.5777,0,24,24,24,1,1,OLD,OLD,,,,,,,,
,,,,,,,,,,,,,,,,TestWords/DAI_RU_CHI.wav,,5eb4841544c2df2f0190e8a0,2021-07-14_16h10.57.230,Agingstudy,2020.2.10,MacIntel,60,,,,,D,,,,,,,,,,,,,,,1,1,0.4914,0,25,25,25,1,1,OLD,OLD,,,,,,,,
,,,,,,,,,,,,,,,,TestWords/VU_NA_WAI.wav,,5eb4841544c2df2f0190e8a0,2021-07-14_16h10.57.230,Agingstudy,2020.2.10,MacIntel,60,,,,,D,,,,,,,,,,,,,,,2,1,0.7661,0,26,26,26,1,2,NEW,SIMILAR,,,,,,,,
,,,,,,,,,,,,,,,,TestWords/RAI_FU_ZO.wav,,5eb4841544c2df2f0190e8a0,2021-07-14_16h10.57.230,Agingstudy,2020.2.10,MacIntel,60,,,,,D,,,,,,,,,,,,,,,1,0,0.9408,0,27,27,27,1,2,NEW,SIMILAR,,,,,,,,
,,,,,,,,,,,,,,,,TestWords/GA_MU_ZI.wav,,5eb4841544c2df2f0190e8a0,2021-07-14_16h10.57.230,Agingstudy,2020.2.10,MacIntel,60,,,,,D,,,,,,,,,,,,,,,2,0,0.9922,0,28,28,28,1,1,OLD,OLD,,,,,,,,
,,,,,,,,,,,,,,,,TestWords/LI_BA_KAY.wav,,5eb4841544c2df2f0190e8a0,2021-07-14_16h10.57.230,Agingstudy,2020.2.10,MacIntel,60,,,,,D,,,,,,,,,,,,,,,2,1,1.5903,0,29,29,29,1,2,NEW,SIMILAR,,,,,,,,
,,,,,,,,,,,,,,,,TestWords/KAI_LAY_TA.wav,,5eb4841544c2df2f0190e8a0,2021-07-14_16h10.57.230,Agingstudy,2020.2.10,MacIntel,60,,,,,D,,,,,,,,,,,,,,,2,0,0.7245,0,30,30,30,1,1,OLD,OLD,,,,,,,,
,,,,,,,,,,,,,,,,TestWords/RAY_PA_TI.wav,,5eb4841544c2df2f0190e8a0,2021-07-14_16h10.57.230,Agingstudy,2020.2.10,MacIntel,60,,,,,D,,,,,,,,,,,,,,,1,1,1.1776,0,31,31,31,1,1,OLD,OLD,,,,,,,,
,,,,,,,,,,,,,,,,TestWords/VU_WAI_NA.wav,,5eb4841544c2df2f0190e8a0,2021-07-14_16h10.57.230,Agingstudy,2020.2.10,MacIntel,60,,,,,D,,,,,,,,,,,,,,,2,1,1.7763,0,32,32,32,1,2,NEW,SIMILAR,,,,,,,,
,,,,,,,,,,,,,,,,TestWords/DAI_RU_CHI.wav,,5eb4841544c2df2f0190e8a0,2021-07-14_16h10.57.230,Agingstudy,2020.2.10,MacIntel,60,,,,,D,,,,,,,,,,,,,,,1,1,0.7091,0,33,33,33,1,1,OLD,OLD,,,,,,,,
,,,,,,,,,,,,,,,,TestWords/ZO_FU_RAI.wav,,5eb4841544c2df2f0190e8a0,2021-07-14_16h10.57.230,Agingstudy,2020.2.10,MacIntel,60,,,,,D,,,,,,,,,,,,,,,1,0,2.008,0,34,34,34,1,2,NEW,SIMILAR,,,,,,,,
,,,,,,,,,,,,,,,,TestWords/BA_LI_KAY.wav,,5eb4841544c2df2f0190e8a0,2021-07-14_16h10.57.230,Agingstudy,2020.2.10,MacIntel,60,,,,,D,,,,,,,,,,,,,,,2,1,1.4904,0,35,35,35,1,2,NEW,SIMILAR,,,,,,,,
,,,,,,,,,,,,,,,,TestWords/KO_SU_FAI.wav,,5eb4841544c2df2f0190e8a0,2021-07-14_16h10.57.230,Agingstudy,2020.2.10,MacIntel,60,,,,,D,,,,,,,,,,,,,,,2,1,0.9246,0,36,36,36,1,2,NEW,NEW,,,,,,,,
,,,,,,,,,,,,,,,,TestWords/KAI_LAY_TA.wav,,5eb4841544c2df2f0190e8a0,2021-07-14_16h10.57.230,Agingstudy,2020.2.10,MacIntel,60,,,,,D,,,,,,,,,,,,,,,2,0,5.1411,0,37,37,37,1,1,OLD,OLD,,,,,,,,
,,,,,,,,,,,,,,,,TestWords/RAY_PA_TI.wav,,5eb4841544c2df2f0190e8a0,2021-07-14_16h10.57.230,Agingstudy,2020.2.10,MacIntel,60,,,,,D,,,,,,,,,,,,,,,1,1,0.3248,0,38,38,38,1,1,OLD,OLD,,,,,,,,
,,,,,,,,,,,,,,,,TestWords/GA_MU_ZI.wav,,5eb4841544c2df2f0190e8a0,2021-07-14_16h10.57.230,Agingstudy,2020.2.10,MacIntel,60,,,,,D,,,,,,,,,,,,,,,1,1,0.5419,0,39,39,39,1,1,OLD,OLD,,,,,,,,
,,,,,,,,,,,,,,,,TestWords/NA_VU_WAI.wav,,5eb4841544c2df2f0190e8a0,2021-07-14_16h10.57.230,Agingstudy,2020.2.10,MacIntel,60,,,,,D,,,,,,,,,,,,,,,1,0,0.4575,0,40,40,40,1,2,NEW,SIMILAR,,,,,,,,
,,,,,,,,,,,,,,,,TestWords/DAI_RU_CHI.wav,,5eb4841544c2df2f0190e8a0,2021-07-14_16h10.57.230,Agingstudy,2020.2.10,MacIntel,60,,,,,D,,,,,,,,,,,,,,,1,1,0.4152,0,41,41,41,1,1,OLD,OLD,,,,,,,,
,,,,,,,,,,,,,,,,TestWords/KO_SU_FAI.wav,,5eb4841544c2df2f0190e8a0,2021-07-14_16h10.57.230,Agingstudy,2020.2.10,MacIntel,60,,,,,D,,,,,,,,,,,,,,,1,1,0.4376,0,42,42,42,1,1,OLD,OLD,,,,,,,,
,,,,,,,,,,,,,,,,TestWords/NA_WAI_VU.wav,,5eb4841544c2df2f0190e8a0,2021-07-14_16h10.57.230,Agingstudy,2020.2.10,MacIntel,60,,,,,D,,,,,,,,,,,,,,,1,0,0.9581,0,43,43,43,1,2,NEW,SIMILAR,,,,,,,,
,,,,,,,,,,,,,,,,TestWords/KAI_LAY_TA.wav,,5eb4841544c2df2f0190e8a0,2021-07-14_16h10.57.230,Agingstudy,2020.2.10,MacIntel,60,,,,,D,,,,,,,,,,,,,,,1,1,1.0748,0,44,44,44,1,1,OLD,OLD,,,,,,,,
,,,,,,,,,,,,,,,,TestWords/SI_VAI_CHU.wav,,5eb4841544c2df2f0190e8a0,2021-07-14_16h10.57.230,Agingstudy,2020.2.10,MacIntel,60,,,,,D,,,,,,,,,,,,,,,2,1,0.7763,0,45,45,45,1,2,NEW,NEW,,,,,,,,
,,,,,,,,,,,,,,,,TestWords/RAY_PA_TI.wav,,5eb4841544c2df2f0190e8a0,2021-07-14_16h10.57.230,Agingstudy,2020.2.10,MacIntel,60,,,,,D,,,,,,,,,,,,,,,1,1,0.8064,0,46,46,46,1,1,OLD,OLD,,,,,,,,
,,,,,,,,,,,,,,,,TestWords/GA_MU_ZI.wav,,5eb4841544c2df2f0190e8a0,2021-07-14_16h10.57.230,Agingstudy,2020.2.10,MacIntel,60,,,,,D,,,,,,,,,,,,,,,1,1,0.4237,0,47,47,47,1,1,OLD,OLD,,,,,,,,
,,,,,,,,,,,,,,,,TestWords/LI_KAY_BA.wav,,5eb4841544c2df2f0190e8a0,2021-07-14_16h10.57.230,Agingstudy,2020.2.10,MacIntel,60,,,,,D,,,,,,,,,,,,,,,2,1,1.442,0,48,48,48,1,2,NEW,SIMILAR,,,,,,,,
,,,,,,,,,,,,,,,,TestWords/KO_SU_FAI.wav,,5eb4841544c2df2f0190e8a0,2021-07-14_16h10.57.230,Agingstudy,2020.2.10,MacIntel,60,,,,,D,,,,,,,,,,,,,,,1,1,1.1438,0,49,49,49,1,1,OLD,OLD,,,,,,,,
,,,,,,,,,,,,,,,,TestWords/DAI_RU_CHI.wav,,5eb4841544c2df2f0190e8a0,2021-07-14_16h10.57.230,Agingstudy,2020.2.10,MacIntel,60,,,,,D,,,,,,,,,,,,,,,1,1,0.2741,0,50,50,50,1,1,OLD,OLD,,,,,,,,
,,,,,,,,,,,,,,,,TestWords/DAY_PU_MO.wav,,5eb4841544c2df2f0190e8a0,2021-07-14_16h10.57.230,Agingstudy,2020.2.10,MacIntel,60,,,,,D,,,,,,,,,,,,,,,2,1,0.4415,0,51,51,51,1,2,NEW,NEW,,,,,,,,
,,,,,,,,,,,,,,,,TestWords/KAI_LAY_TA.wav,,5eb4841544c2df2f0190e8a0,2021-07-14_16h10.57.230,Agingstudy,2020.2.10,MacIntel,60,,,,,D,,,,,,,,,,,,,,,2,0,1.4426,0,52,52,52,1,1,OLD,OLD,,,,,,,,
,,,,,,,,,,,,,,,,TestWords/LU_HAI_BO.wav,,5eb4841544c2df2f0190e8a0,2021-07-14_16h10.57.230,Agingstudy,2020.2.10,MacIntel,60,,,,,D,,,,,,,,,,,,,,,2,1,0.925,0,53,53,53,1,2,NEW,NEW,,,,,,,,
,,,,,,,,,,,,,,,,TestWords/RAY_PA_TI.wav,,5eb4841544c2df2f0190e8a0,2021-07-14_16h10.57.230,Agingstudy,2020.2.10,MacIntel,60,,,,,D,,,,,,,,,,,,,,,1,1,0.4068,0,54,54,54,1,1,OLD,OLD,,,,,,,,
,,,,,,,,,,,,,,,,TestWords/GA_MU_ZI.wav,,5eb4841544c2df2f0190e8a0,2021-07-14_16h10.57.230,Agingstudy,2020.2.10,MacIntel,60,,,,,D,,,,,,,,,,,,,,,1,1,0.6737,0,55,55,55,1,1,OLD,OLD,,,,,,,,
,,,,,,,,,,,,,,,,TestWords/KO_SU_FAI.wav,,5eb4841544c2df2f0190e8a0,2021-07-14_16h10.57.230,Agingstudy,2020.2.10,MacIntel,60,,,,,D,,,,,,,,,,,,,,,1,1,0.5427,0,56,56,56,1,1,OLD,OLD,,,,,,,,
,,,,,,,,,,,,,,,,TestWords/TAI_SA_GI.wav,,5eb4841544c2df2f0190e8a0,2021-07-14_16h10.57.230,Agingstudy,2020.2.10,MacIntel,60,,,,,D,,,,,,,,,,,,,,,2,1,0.5416,0,57,57,57,1,2,NEW,NEW,,,,,,,,
,,,,,,,,,,,,,,,,TestWords/DAY_MO_PU.wav,,5eb4841544c2df2f0190e8a0,2021-07-14_16h10.57.230,Agingstudy,2020.2.10,MacIntel,60,,,,,D,,,,,,,,,,,,,,,1,0,3.2498,0,58,58,58,1,2,NEW,SIMILAR,,,,,,,,
,,,,,,,,,,,,,,,,TestWords/DAI_RU_CHI.wav,,5eb4841544c2df2f0190e8a0,2021-07-14_16h10.57.230,Agingstudy,2020.2.10,MacIntel,60,,,,,D,,,,,,,,,,,,,,,1,1,0.858,0,59,59,59,1,1,OLD,OLD,,,,,,,,
,,,,,,,,,,,,,,,,TestWords/KAI_LAY_TA.wav,,5eb4841544c2df2f0190e8a0,2021-07-14_16h10.57.230,Agingstudy,2020.2.10,MacIntel,60,,,,,D,,,,,,,,,,,,,,,1,1,1.2815,0,60,60,60,1,1,OLD,OLD,,,,,,,,
,,,,,,,,,,,,,,,,TestWords/LA_ZAY_CHAI.wav,,5eb4841544c2df2f0190e8a0,2021-07-14_16h10.57.230,Agingstudy,2020.2.10,MacIntel,60,,,,,D,,,,,,,,,,,,,,,2,1,0.968,0,61,61,61,1,2,NEW,NEW,,,,,,,,
,,,,,,,,,,,,,,,,TestWords/RAY_PA_TI.wav,,5eb4841544c2df2f0190e8a0,2021-07-14_16h10.57.230,Agingstudy,2020.2.10,MacIntel,60,,,,,D,,,,,,,,,,,,,,,1,1,0.1927,0,62,62,62,1,1,OLD,OLD,,,,,,,,
,,,,,,,,,,,,,,,,TestWords/KO_SU_FAI.wav,,5eb4841544c2df2f0190e8a0,2021-07-14_16h10.57.230,Agingstudy,2020.2.10,MacIntel,60,,,,,D,,,,,,,,,,,,,,,1,1,1.1569,0,63,63,63,1,1,OLD,OLD,,,,,,,,
,,,,,,,,,,,,,,,,TestWords/GA_MU_ZI.wav,,5eb4841544c2df2f0190e8a0,2021-07-14_16h10.57.230,Agingstudy,2020.2.10,MacIntel,60,,,,,D,,,,,,,,,,,,,,,1,1,0.6858,0,64,64,64,1,1,OLD,OLD,,,,,,,,
,,,,,,,,,,,,,,,,TestWords/GI_TAI_SA.wav,,5eb4841544c2df2f0190e8a0,2021-07-14_16h10.57.230,Agingstudy,2020.2.10,MacIntel,60,,,,,D,,,,,,,,,,,,,,,2,1,2.9531,0,65,65,65,1,2,NEW,SIMILAR,,,,,,,,
,,,,,,,,,,,,,,,,TestWords/MO_DAY_PU.wav,,5eb4841544c2df2f0190e8a0,2021-07-14_16h10.57.230,Agingstudy,2020.2.10,MacIntel,60,,,,,D,,,,,,,,,,,,,,,2,1,9.0566,0,66,66,66,1,2,NEW,SIMILAR,,,,,,,,
,,,,,,,,,,,,,,,,TestWords/KAI_LAY_TA.wav,,5eb4841544c2df2f0190e8a0,2021-07-14_16h10.57.230,Agingstudy,2020.2.10,MacIntel,60,,,,,D,,,,,,,,,,,,,,,2,0,3.9597,0,67,67,67,1,1,OLD,OLD,,,,,,,,
,,,,,,,,,,,,,,,,TestWords/KO_SU_FAI.wav,,5eb4841544c2df2f0190e8a0,2021-07-14_16h10.57.230,Agingstudy,2020.2.10,MacIntel,60,,,,,D,,,,,,,,,,,,,,,1,1,2.5723,0,68,68,68,1,1,OLD,OLD,,,,,,,,
,,,,,,,,,,,,,,,,TestWords/RAY_PA_TI.wav,,5eb4841544c2df2f0190e8a0,2021-07-14_16h10.57.230,Agingstudy,2020.2.10,MacIntel,60,,,,,D,,,,,,,,,,,,,,,1,1,0.3895,0,69,69,69,1,1,OLD,OLD,,,,,,,,
,,,,,,,,,,,,,,,,TestWords/NU_CHAY_SO.wav,,5eb4841544c2df2f0190e8a0,2021-07-14_16h10.57.230,Agingstudy,2020.2.10,MacIntel,60,,,,,D,,,,,,,,,,,,,,,2,1,4.5031,0,70,70,70,1,2,NEW,NEW,,,,,,,,
,,,,,,,,,,,,,,,,TestWords/GA_MU_ZI.wav,,5eb4841544c2df2f0190e8a0,2021-07-14_16h10.57.230,Agingstudy,2020.2.10,MacIntel,60,,,,,D,,,,,,,,,,,,,,,1,1,0.7592,0,71,71,71,1,1,OLD,OLD,,,,,,,,
,,,,,,,,,,,,,,,,TestWords/DAI_RU_CHI.wav,,5eb4841544c2df2f0190e8a0,2021-07-14_16h10.57.230,Agingstudy,2020.2.10,MacIntel,60,,,,,D,,,,,,,,,,,,,,,1,1,0.4889,0,72,72,72,1,1,OLD,OLD,,,,,,,,
,,,,,,,,,,,,,,,,TestWords/SA_TAI_GI.wav,,5eb4841544c2df2f0190e8a0,2021-07-14_16h10.57.230,Agingstudy,2020.2.10,MacIntel,60,,,,,D,,,,,,,,,,,,,,,2,1,0.3541,0,73,73,73,1,2,NEW,SIMILAR,,,,,,,,
,,,,,,,,,,,,,,,,TestWords/PU_DAY_MO.wav,,5eb4841544c2df2f0190e8a0,2021-07-14_16h10.57.230,Agingstudy,2020.2.10,MacIntel,60,,,,,D,,,,,,,,,,,,,,,2,1,1.2238,0,74,74,74,1,2,NEW,SIMILAR,,,,,,,,
,,,,,,,,,,,,,,,,TestWords/KO_SU_FAI.wav,,5eb4841544c2df2f0190e8a0,2021-07-14_16h10.57.230,Agingstudy,2020.2.10,MacIntel,60,,,,,D,,,,,,,,,,,,,,,1,1,0.4747,0,75,75,75,1,1,OLD,OLD,,,,,,,,
,,,,,,,,,,,,,,,,TestWords/KAI_LAY_TA.wav,,5eb4841544c2df2f0190e8a0,2021-07-14_16h10.57.230,Agingstudy,2020.2.10,MacIntel,60,,,,,D,,,,,,,,,,,,,,,1,1,0.4074,0,76,76,76,1,1,OLD,OLD,,,,,,,,
,,,,,,,,,,,,,,,,TestWords/HA_SI_JAI.wav,,5eb4841544c2df2f0190e8a0,2021-07-14_16h10.57.230,Agingstudy,2020.2.10,MacIntel,60,,,,,D,,,,,,,,,,,,,,,2,1,0.8566,0,77,77,77,1,2,NEW,NEW,,,,,,,,
,,,,,,,,,,,,,,,,TestWords/RAY_PA_TI.wav,,5eb4841544c2df2f0190e8a0,2021-07-14_16h10.57.230,Agingstudy,2020.2.10,MacIntel,60,,,,,D,,,,,,,,,,,,,,,1,1,0.4409,0,78,78,78,1,1,OLD,OLD,,,,,,,,
,,,,,,,,,,,,,,,,TestWords/DAI_RU_CHI.wav,,5eb4841544c2df2f0190e8a0,2021-07-14_16h10.57.230,Agingstudy,2020.2.10,MacIntel,60,,,,,D,,,,,,,,,,,,,,,1,1,1.3259,0,79,79,79,1,1,OLD,OLD,,,,,,,,
,,,,,,,,,,,,,,,,TestWords/GA_MU_ZI.wav,,5eb4841544c2df2f0190e8a0,2021-07-14_16h10.57.230,Agingstudy,2020.2.10,MacIntel,60,,,,,D,,,,,,,,,,,,,,,1,1,1.9745,0,80,80,80,1,1,OLD,OLD,,,,,,,,
,,,,,,,,,,,,,,,,TestWords/SA_GI_TAI.wav,,5eb4841544c2df2f0190e8a0,2021-07-14_16h10.57.230,Agingstudy,2020.2.10,MacIntel,60,,,,,D,,,,,,,,,,,,,,,1,0,1.2921,0,81,81,81,1,2,NEW,SIMILAR,,,,,,,,
,,,,,,,,,,,,,,,,TestWords/KO_SU_FAI.wav,,5eb4841544c2df2f0190e8a0,2021-07-14_16h10.57.230,Agingstudy,2020.2.10,MacIntel,60,,,,,D,,,,,,,,,,,,,,,1,1,0.7253,0,82,82,82,1,1,OLD,OLD,,,,,,,,
,,,,,,,,,,,,,,,,TestWords/KAI_LAY_TA.wav,,5eb4841544c2df2f0190e8a0,2021-07-14_16h10.57.230,Agingstudy,2020.2.10,MacIntel,60,,,,,D,,,,,,,,,,,,,,,1,1,0.5398,0,83,83,83,1,1,OLD,OLD,,,,,,,,
,,,,,,,,,,,,,,,,TestWords/PU_MO_DAY.wav,,5eb4841544c2df2f0190e8a0,2021-07-14_16h10.57.230,Agingstudy,2020.2.10,MacIntel,60,,,,,D,,,,,,,,,,,,,,,1,0,0.7537,0,84,84,84,1,2,NEW,SIMILAR,,,,,,,,
,,,,,,,,,,,,,,,,TestWords/RAY_PA_TI.wav,,5eb4841544c2df2f0190e8a0,2021-07-14_16h10.57.230,Agingstudy,2020.2.10,MacIntel,60,,,,,D,,,,,,,,,,,,,,,1,1,0.3919,0,85,85,85,1,1,OLD,OLD,,,,,,,,
,,,,,,,,,,,,,,,,TestWords/HI_NAY_VA.wav,,5eb4841544c2df2f0190e8a0,2021-07-14_16h10.57.230,Agingstudy,2020.2.10,MacIntel,60,,,,,D,,,,,,,,,,,,,,,1,0,0.7746,0,86,86,86,1,2,NEW,NEW,,,,,,,,
,,,,,,,,,,,,,,,,TestWords/DAI_RU_CHI.wav,,5eb4841544c2df2f0190e8a0,2021-07-14_16h10.57.230,Agingstudy,2020.2.10,MacIntel,60,,,,,D,,,,,,,,,,,,,,,1,1,0.3255,0,87,87,87,1,1,OLD,OLD,,,,,,,,
,,,,,,,,,,,,,,,,TestWords/TAI_GI_SA.wav,,5eb4841544c2df2f0190e8a0,2021-07-14_16h10.57.230,Agingstudy,2020.2.10,MacIntel,60,,,,,D,,,,,,,,,,,,,,,2,1,0.776,0,88,88,88,1,2,NEW,SIMILAR,,,,,,,,
,,,,,,,,,,,,,,,,TestWords/KO_SU_FAI.wav,,5eb4841544c2df2f0190e8a0,2021-07-14_16h10.57.230,Agingstudy,2020.2.10,MacIntel,60,,,,,D,,,,,,,,,,,,,,,1,1,0.5582,0,89,89,89,1,1,OLD,OLD,,,,,,,,
,,,,,,,,,,,,,,,,TestWords/GA_MU_ZI.wav,,5eb4841544c2df2f0190e8a0,2021-07-14_16h10.57.230,Agingstudy,2020.2.10,MacIntel,60,,,,,D,,,,,,,,,,,,,,,1,1,1.5061,0,90,90,90,1,1,OLD,OLD,,,,,,,,
,,,,,,,,,,,,,,,,TestWords/PAI_LU_WA.wav,,5eb4841544c2df2f0190e8a0,2021-07-14_16h10.57.230,Agingstudy,2020.2.10,MacIntel,60,,,,,D,,,,,,,,,,,,,,,2,1,0.6744,0,91,91,91,1,2,NEW,NEW,,,,,,,,
,,,,,,,,,,,,,,,,TestWords/KAI_LAY_TA.wav,,5eb4841544c2df2f0190e8a0,2021-07-14_16h10.57.230,Agingstudy,2020.2.10,MacIntel,60,,,,,D,,,,,,,,,,,,,,,2,0,1.5587,0,92,92,92,1,1,OLD,OLD,,,,,,,,
,,,,,,,,,,,,,,,,TestWords/MO_PU_DAY.wav,,5eb4841544c2df2f0190e8a0,2021-07-14_16h10.57.230,Agingstudy,2020.2.10,MacIntel,60,,,,,D,,,,,,,,,,,,,,,1,0,1.3932,0,93,93,93,1,2,NEW,SIMILAR,,,,,,,,
,,,,,,,,,,,,,,,,TestWords/KO_SU_FAI.wav,,5eb4841544c2df2f0190e8a0,2021-07-14_16h10.57.230,Agingstudy,2020.2.10,MacIntel,60,,,,,D,,,,,,,,,,,,,,,1,1,1.0421,0,94,94,94,1,1,OLD,OLD,,,,,,,,
,,,,,,,,,,,,,,,,TestWords/GI_SA_TAI.wav,,5eb4841544c2df2f0190e8a0,2021-07-14_16h10.57.230,Agingstudy,2020.2.10,MacIntel,60,,,,,D,,,,,,,,,,,,,,,1,0,1.3712,0,95,95,95,1,2,NEW,SIMILAR,,,,,,,,
,,,,,,,,,,,,,,,,TestWords/HO_NAY_VA.wav,,5eb4841544c2df2f0190e8a0,2021-07-14_16h10.57.230,Agingstudy,2020.2.10,MacIntel,60,,,,,D,,,,,,,,,,,,,,,1,0,1.2918,0,96,96,96,1,2,NEW,NEW,,,,,,,,
,,,,,,,,,,,,,,,,TestWords/GU_CHAI_PI.wav,,5eb4841544c2df2f0190e8a0,2021-07-14_16h10.57.230,Agingstudy,2020.2.10,MacIntel,60,,,,,D,,,,,,,,,,,,,,,2,1,4.0927,0,97,97,97,1,2,NEW,NEW,,,,,,,,
,,,,,,,,,,,,,,,,TestWords/KO_SU_FAI.wav,,5eb4841544c2df2f0190e8a0,2021-07-14_16h10.57.230,Agingstudy,2020.2.10,MacIntel,60,,,,,D,,,,,,,,,,,,,,,1,1,0.6416,0,98,98,98,1,1,OLD,OLD,,,,,,,,
,,,,,,,,,,,,,,,,TestWords/WAI_RO_JU.wav,,5eb4841544c2df2f0190e8a0,2021-07-14_16h10.57.230,Agingstudy,2020.2.10,MacIntel,60,,,,,D,,,,,,,,,,,,,,,2,1,1.1422,0,99,99,99,1,2,NEW,NEW,,,,,,,,
,,,,,,,,,,,,,,,,,,5eb4841544c2df2f0190e8a0,2021-07-14_16h10.57.230,Agingstudy,2020.2.10,MacIntel,60,,,,,,,,,,,,,,,,,,,,,,,,,,,,,,,0,0,0,0,1,,,
,,,,,,,,,,,,,,,,,,5eb4841544c2df2f0190e8a0,2021-07-14_16h10.57.230,Agingstudy,2020.2.10,MacIntel,60,,,,,,,,,,,,,,,,,,,,,,,,,,,,,,,,,,,,return,13.3057,
