Welcome0Continue.keys,Welcome0Continue.rt,SoundCheckBegin.keys,SoundCheckBegin.rt,SoundCheckEndKey.keys,SoundCheckEndKey.rt,HeadphoneContinueKey.keys,HeadphoneContinueKey.rt,CheckResp.keys,CheckResp.corr,CheckResp.rt,HeadphoneLoop.thisRepN,HeadphoneLoop.thisTrialN,HeadphoneLoop.thisN,HeadphoneLoop.thisIndex,HeadphoneLoop.ran,File,Correct,participant,date,expName,psychopyVersion,OS,frameRate,STUDY_ID,SESSION_ID,ContinueKey8.keys,ContinueKey8.rt,MSTWelcomeContKey.keys,MSTWelcomeContKey.rt,Condition,MSTTrainIntroKey.keys,MSTTrainIntroKey.rt,MSTTrainKeys.keys,MSTTrainKeys.corr,MSTTrainKeys.rt,MSTTrainLoop.thisRepN,MSTTrainLoop.thisTrialN,MSTTrainLoop.thisN,MSTTrainLoop.thisIndex,MSTTrainLoop.ran,SoundFile,Type,MSTTestBeginKey.keys,MSTTestBeginKey.rt,MST_resp.keys,MST_resp.corr,MST_resp.rt,MSTPlayLoop.thisRepN,MSTPlayLoop.thisTrialN,MSTPlayLoop.thisN,MSTPlayLoop.thisIndex,MSTPlayLoop.ran,WordCorrect,Correct_type,WordType,MSTLoop.thisRepN,MSTLoop.thisTrialN,MSTLoop.thisN,MSTLoop.thisIndex,MSTLoop.ran,EndAllKey.keys,EndAllKey.rt,FeedbackResp.text
space,4.5753,space,2.973200001,space,0.0473,space,0.072200001,3,1,3.198200001,0,0,0,5,1,Headphone/t3_2.wav,3,5f0856dbffe90703c92542eb,2021-07-15_22h45.09.277,Agingstudy_mst,2020.2.10,Win32,60,60e8550594adb1982c6cb1b5,60f0ac36793d14c6d06e3921,,,,,,,,,,,,,,,,,,,,,,,,,,,,,,,,,,,,,,
,,,,,,,,1,1,0.7387,0,1,1,1,1,Headphone/t1_2.wav,1,5f0856dbffe90703c92542eb,2021-07-15_22h45.09.277,Agingstudy_mst,2020.2.10,Win32,60,60e8550594adb1982c6cb1b5,60f0ac36793d14c6d06e3921,,,,,,,,,,,,,,,,,,,,,,,,,,,,,,,,,,,,,,
,,,,,,,,2,1,0.4041,0,2,2,3,1,Headphone/t2_2.wav,2,5f0856dbffe90703c92542eb,2021-07-15_22h45.09.277,Agingstudy_mst,2020.2.10,Win32,60,60e8550594adb1982c6cb1b5,60f0ac36793d14c6d06e3921,,,,,,,,,,,,,,,,,,,,,,,,,,,,,,,,,,,,,,
,,,,,,,,1,1,0.517400001,0,3,3,0,1,Headphone/t1_1.wav,1,5f0856dbffe90703c92542eb,2021-07-15_22h45.09.277,Agingstudy_mst,2020.2.10,Win32,60,60e8550594adb1982c6cb1b5,60f0ac36793d14c6d06e3921,,,,,,,,,,,,,,,,,,,,,,,,,,,,,,,,,,,,,,
,,,,,,,,2,1,0.5348,0,4,4,2,1,Headphone/t2_1.wav,2,5f0856dbffe90703c92542eb,2021-07-15_22h45.09.277,Agingstudy_mst,2020.2.10,Win32,60,60e8550594adb1982c6cb1b5,60f0ac36793d14c6d06e3921,,,,,,,,,,,,,,,,,,,,,,,,,,,,,,,,,,,,,,
,,,,,,,,3,1,0.455599999,0,5,5,4,1,Headphone/t3_1.wav,3,5f0856dbffe90703c92542eb,2021-07-15_22h45.09.277,Agingstudy_mst,2020.2.10,Win32,60,60e8550594adb1982c6cb1b5,60f0ac36793d14c6d06e3921,,,,,,,,,,,,,,,,,,,,,,,,,,,,,,,,,,,,,,
,,,,,,,,,,,,,,,,,2,5f0856dbffe90703c92542eb,2021-07-15_22h45.09.277,Agingstudy_mst,2020.2.10,Win32,60,60e8550594adb1982c6cb1b5,60f0ac36793d14c6d06e3921,space,10.2679,space,8.839400001,1,space,2.6183,2,1,4.0688,0,0,0,0,1,Training/FO_YI_LAY.wav,NEW,,,,,,,,,,,,,,,,,,,,,
,,,,,,,,,,,,,,,,,1,5f0856dbffe90703c92542eb,2021-07-15_22h45.09.277,Agingstudy_mst,2020.2.10,Win32,60,60e8550594adb1982c6cb1b5,60f0ac36793d14c6d06e3921,,,,,,,,1,1,2.418,0,1,1,1,1,Training/FO_YI_LAY.wav,OLD,,,,,,,,,,,,,,,,,,,,,
,,,,,,,,,,,,,,,,,2,5f0856dbffe90703c92542eb,2021-07-15_22h45.09.277,Agingstudy_mst,2020.2.10,Win32,60,60e8550594adb1982c6cb1b5,60f0ac36793d14c6d06e3921,,,,,,,,2,1,0.7426,0,2,2,2,1,Training/YO_BU_JAY.wav,NEW,,,,,,,,,,,,,,,,,,,,,
,,,,,,,,,,,,,,,,,2,5f0856dbffe90703c92542eb,2021-07-15_22h45.09.277,Agingstudy_mst,2020.2.10,Win32,60,60e8550594adb1982c6cb1b5,60f0ac36793d14c6d06e3921,,,,,,,,2,1,0.7837,0,3,3,3,1,Training/JAY_YO_BU.wav,SIMILAR,,,,,,,,,,,,,,,,,,,,,
,,,,,,,,,,,,,,,,,1,5f0856dbffe90703c92542eb,2021-07-15_22h45.09.277,Agingstudy_mst,2020.2.10,Win32,60,60e8550594adb1982c6cb1b5,60f0ac36793d14c6d06e3921,,,,,,,,1,1,1.2091,0,4,4,4,1,Training/FO_YI_LAY.wav,OLD,,,,,,,,,,,,,,,,,,,,,
,,,,,,,,,,,,,,,,TestWords/CHU_LA_PAY.wav,,5f0856dbffe90703c92542eb,2021-07-15_22h45.09.277,Agingstudy_mst,2020.2.10,Win32,60,60e8550594adb1982c6cb1b5,60f0ac36793d14c6d06e3921,,,,,D,,,,,,,,,,,,,space,4.606900001,2,1,2.2678,0,0,0,0,1,2,NEW,NEW,,,,,,,,
,,,,,,,,,,,,,,,,TestWords/FI_GU_CHA.wav,,5f0856dbffe90703c92542eb,2021-07-15_22h45.09.277,Agingstudy_mst,2020.2.10,Win32,60,60e8550594adb1982c6cb1b5,60f0ac36793d14c6d06e3921,,,,,D,,,,,,,,,,,,,,,2,1,0.5339,0,1,1,1,1,2,NEW,NEW,,,,,,,,
,,,,,,,,,,,,,,,,TestWords/RAI_ZO_FU.wav,,5f0856dbffe90703c92542eb,2021-07-15_22h45.09.277,Agingstudy_mst,2020.2.10,Win32,60,60e8550594adb1982c6cb1b5,60f0ac36793d14c6d06e3921,,,,,D,,,,,,,,,,,,,,,2,1,0.553599999,0,2,2,2,1,2,NEW,NEW,,,,,,,,
,,,,,,,,,,,,,,,,TestWords/DAI_RU_CHI.wav,,5f0856dbffe90703c92542eb,2021-07-15_22h45.09.277,Agingstudy_mst,2020.2.10,Win32,60,60e8550594adb1982c6cb1b5,60f0ac36793d14c6d06e3921,,,,,D,,,,,,,,,,,,,,,2,1,0.385900001,0,3,3,3,1,2,NEW,NEW,,,,,,,,
,,,,,,,,,,,,,,,,TestWords/GA_MU_ZI.wav,,5f0856dbffe90703c92542eb,2021-07-15_22h45.09.277,Agingstudy_mst,2020.2.10,Win32,60,60e8550594adb1982c6cb1b5,60f0ac36793d14c6d06e3921,,,,,D,,,,,,,,,,,,,,,2,1,0.4214,0,4,4,4,1,2,NEW,NEW,,,,,,,,
,,,,,,,,,,,,,,,,TestWords/DA_CHU_VAI.wav,,5f0856dbffe90703c92542eb,2021-07-15_22h45.09.277,Agingstudy_mst,2020.2.10,Win32,60,60e8550594adb1982c6cb1b5,60f0ac36793d14c6d06e3921,,,,,D,,,,,,,,,,,,,,,2,1,0.5182,0,5,5,5,1,2,NEW,NEW,,,,,,,,
,,,,,,,,,,,,,,,,TestWords/ZO_RAI_FU.wav,,5f0856dbffe90703c92542eb,2021-07-15_22h45.09.277,Agingstudy_mst,2020.2.10,Win32,60,60e8550594adb1982c6cb1b5,60f0ac36793d14c6d06e3921,,,,,D,,,,,,,,,,,,,,,1,0,1.2935,0,6,6,6,1,2,NEW,SIMILAR,,,,,,,,
,,,,,,,,,,,,,,,,TestWords/BA_KAY_LI.wav,,5f0856dbffe90703c92542eb,2021-07-15_22h45.09.277,Agingstudy_mst,2020.2.10,Win32,60,60e8550594adb1982c6cb1b5,60f0ac36793d14c6d06e3921,,,,,D,,,,,,,,,,,,,,,2,1,0.1561,0,7,7,7,1,2,NEW,NEW,,,,,,,,
,,,,,,,,,,,,,,,,TestWords/VAI_HO_LA.wav,,5f0856dbffe90703c92542eb,2021-07-15_22h45.09.277,Agingstudy_mst,2020.2.10,Win32,60,60e8550594adb1982c6cb1b5,60f0ac36793d14c6d06e3921,,,,,D,,,,,,,,,,,,,,,2,1,1.4598,0,8,8,8,1,2,NEW,NEW,,,,,,,,
,,,,,,,,,,,,,,,,TestWords/DAI_RU_CHI.wav,,5f0856dbffe90703c92542eb,2021-07-15_22h45.09.277,Agingstudy_mst,2020.2.10,Win32,60,60e8550594adb1982c6cb1b5,60f0ac36793d14c6d06e3921,,,,,D,,,,,,,,,,,,,,,1,1,0.5109,0,9,9,9,1,1,OLD,OLD,,,,,,,,
,,,,,,,,,,,,,,,,TestWords/RAY_PA_TI.wav,,5f0856dbffe90703c92542eb,2021-07-15_22h45.09.277,Agingstudy_mst,2020.2.10,Win32,60,60e8550594adb1982c6cb1b5,60f0ac36793d14c6d06e3921,,,,,D,,,,,,,,,,,,,,,2,1,0.5562,0,10,10,10,1,2,NEW,NEW,,,,,,,,
,,,,,,,,,,,,,,,,TestWords/NO_WA_BAY.wav,,5f0856dbffe90703c92542eb,2021-07-15_22h45.09.277,Agingstudy_mst,2020.2.10,Win32,60,60e8550594adb1982c6cb1b5,60f0ac36793d14c6d06e3921,,,,,D,,,,,,,,,,,,,,,2,1,0.2094,0,11,11,11,1,2,NEW,NEW,,,,,,,,
,,,,,,,,,,,,,,,,TestWords/GA_MU_ZI.wav,,5f0856dbffe90703c92542eb,2021-07-15_22h45.09.277,Agingstudy_mst,2020.2.10,Win32,60,60e8550594adb1982c6cb1b5,60f0ac36793d14c6d06e3921,,,,,D,,,,,,,,,,,,,,,2,0,0.371599999,0,12,12,12,1,1,OLD,OLD,,,,,,,,
,,,,,,,,,,,,,,,,TestWords/WAI_VU_NA.wav,,5f0856dbffe90703c92542eb,2021-07-15_22h45.09.277,Agingstudy_mst,2020.2.10,Win32,60,60e8550594adb1982c6cb1b5,60f0ac36793d14c6d06e3921,,,,,D,,,,,,,,,,,,,,,2,1,0.2232,0,13,13,13,1,2,NEW,NEW,,,,,,,,
,,,,,,,,,,,,,,,,TestWords/KAY_LI_BA.wav,,5f0856dbffe90703c92542eb,2021-07-15_22h45.09.277,Agingstudy_mst,2020.2.10,Win32,60,60e8550594adb1982c6cb1b5,60f0ac36793d14c6d06e3921,,,,,D,,,,,,,,,,,,,,,2,1,0.6934,0,14,14,14,1,2,NEW,SIMILAR,,,,,,,,
,,,,,,,,,,,,,,,,TestWords/FU_RAI_ZO.wav,,5f0856dbffe90703c92542eb,2021-07-15_22h45.09.277,Agingstudy_mst,2020.2.10,Win32,60,60e8550594adb1982c6cb1b5,60f0ac36793d14c6d06e3921,,,,,D,,,,,,,,,,,,,,,1,0,0.9572,0,15,15,15,1,2,NEW,SIMILAR,,,,,,,,
,,,,,,,,,,,,,,,,TestWords/KAI_LAY_TA.wav,,5f0856dbffe90703c92542eb,2021-07-15_22h45.09.277,Agingstudy_mst,2020.2.10,Win32,60,60e8550594adb1982c6cb1b5,60f0ac36793d14c6d06e3921,,,,,D,,,,,,,,,,,,,,,2,1,0.2668,0,16,16,16,1,2,NEW,NEW,,,,,,,,
,,,,,,,,,,,,,,,,TestWords/RAY_PA_TI.wav,,5f0856dbffe90703c92542eb,2021-07-15_22h45.09.277,Agingstudy_mst,2020.2.10,Win32,60,60e8550594adb1982c6cb1b5,60f0ac36793d14c6d06e3921,,,,,D,,,,,,,,,,,,,,,1,1,1.9432,0,17,17,17,1,1,OLD,OLD,,,,,,,,
,,,,,,,,,,,,,,,,TestWords/DAI_RU_CHI.wav,,5f0856dbffe90703c92542eb,2021-07-15_22h45.09.277,Agingstudy_mst,2020.2.10,Win32,60,60e8550594adb1982c6cb1b5,60f0ac36793d14c6d06e3921,,,,,D,,,,,,,,,,,,,,,1,1,0.534,0,18,18,18,1,1,OLD,OLD,,,,,,,,
,,,,,,,,,,,,,,,,TestWords/WAI_NA_VU.wav,,5f0856dbffe90703c92542eb,2021-07-15_22h45.09.277,Agingstudy_mst,2020.2.10,Win32,60,60e8550594adb1982c6cb1b5,60f0ac36793d14c6d06e3921,,,,,D,,,,,,,,,,,,,,,2,1,0.202299999,0,19,19,19,1,2,NEW,SIMILAR,,,,,,,,
,,,,,,,,,,,,,,,,TestWords/GA_MU_ZI.wav,,5f0856dbffe90703c92542eb,2021-07-15_22h45.09.277,Agingstudy_mst,2020.2.10,Win32,60,60e8550594adb1982c6cb1b5,60f0ac36793d14c6d06e3921,,,,,D,,,,,,,,,,,,,,,1,1,0.8538,0,20,20,20,1,1,OLD,OLD,,,,,,,,
,,,,,,,,,,,,,,,,TestWords/KAY_BA_LI.wav,,5f0856dbffe90703c92542eb,2021-07-15_22h45.09.277,Agingstudy_mst,2020.2.10,Win32,60,60e8550594adb1982c6cb1b5,60f0ac36793d14c6d06e3921,,,,,D,,,,,,,,,,,,,,,2,1,2.969599999,0,21,21,21,1,2,NEW,SIMILAR,,,,,,,,
,,,,,,,,,,,,,,,,TestWords/KAI_LAY_TA.wav,,5f0856dbffe90703c92542eb,2021-07-15_22h45.09.277,Agingstudy_mst,2020.2.10,Win32,60,60e8550594adb1982c6cb1b5,60f0ac36793d14c6d06e3921,,,,,D,,,,,,,,,,,,,,,1,1,0.378,0,22,22,22,1,1,OLD,OLD,,,,,,,,
,,,,,,,,,,,,,,,,TestWords/FU_ZO_RAI.wav,,5f0856dbffe90703c92542eb,2021-07-15_22h45.09.277,Agingstudy_mst,2020.2.10,Win32,60,60e8550594adb1982c6cb1b5,60f0ac36793d14c6d06e3921,,,,,D,,,,,,,,,,,,,,,1,0,1.023900001,0,23,23,23,1,2,NEW,SIMILAR,,,,,,,,
,,,,,,,,,,,,,,,,TestWords/RAY_PA_TI.wav,,5f0856dbffe90703c92542eb,2021-07-15_22h45.09.277,Agingstudy_mst,2020.2.10,Win32,60,60e8550594adb1982c6cb1b5,60f0ac36793d14c6d06e3921,,,,,D,,,,,,,,,,,,,,,1,1,0.54,0,24,24,24,1,1,OLD,OLD,,,,,,,,
,,,,,,,,,,,,,,,,TestWords/DAI_RU_CHI.wav,,5f0856dbffe90703c92542eb,2021-07-15_22h45.09.277,Agingstudy_mst,2020.2.10,Win32,60,60e8550594adb1982c6cb1b5,60f0ac36793d14c6d06e3921,,,,,D,,,,,,,,,,,,,,,1,1,0.4338,0,25,25,25,1,1,OLD,OLD,,,,,,,,
,,,,,,,,,,,,,,,,TestWords/VU_NA_WAI.wav,,5f0856dbffe90703c92542eb,2021-07-15_22h45.09.277,Agingstudy_mst,2020.2.10,Win32,60,60e8550594adb1982c6cb1b5,60f0ac36793d14c6d06e3921,,,,,D,,,,,,,,,,,,,,,2,1,0.4513,0,26,26,26,1,2,NEW,SIMILAR,,,,,,,,
,,,,,,,,,,,,,,,,TestWords/RAI_FU_ZO.wav,,5f0856dbffe90703c92542eb,2021-07-15_22h45.09.277,Agingstudy_mst,2020.2.10,Win32,60,60e8550594adb1982c6cb1b5,60f0ac36793d14c6d06e3921,,,,,D,,,,,,,,,,,,,,,1,0,1.088599999,0,27,27,27,1,2,NEW,SIMILAR,,,,,,,,
,,,,,,,,,,,,,,,,TestWords/GA_MU_ZI.wav,,5f0856dbffe90703c92542eb,2021-07-15_22h45.09.277,Agingstudy_mst,2020.2.10,Win32,60,60e8550594adb1982c6cb1b5,60f0ac36793d14c6d06e3921,,,,,D,,,,,,,,,,,,,,,1,1,0.6337,0,28,28,28,1,1,OLD,OLD,,,,,,,,
,,,,,,,,,,,,,,,,TestWords/LI_BA_KAY.wav,,5f0856dbffe90703c92542eb,2021-07-15_22h45.09.277,Agingstudy_mst,2020.2.10,Win32,60,60e8550594adb1982c6cb1b5,60f0ac36793d14c6d06e3921,,,,,D,,,,,,,,,,,,,,,1,0,1.184,0,29,29,29,1,2,NEW,SIMILAR,,,,,,,,
,,,,,,,,,,,,,,,,TestWords/KAI_LAY_TA.wav,,5f0856dbffe90703c92542eb,2021-07-15_22h45.09.277,Agingstudy_mst,2020.2.10,Win32,60,60e8550594adb1982c6cb1b5,60f0ac36793d14c6d06e3921,,,,,D,,,,,,,,,,,,,,,2,0,1.4005,0,30,30,30,1,1,OLD,OLD,,,,,,,,
,,,,,,,,,,,,,,,,TestWords/RAY_PA_TI.wav,,5f0856dbffe90703c92542eb,2021-07-15_22h45.09.277,Agingstudy_mst,2020.2.10,Win32,60,60e8550594adb1982c6cb1b5,60f0ac36793d14c6d06e3921,,,,,D,,,,,,,,,,,,,,,1,1,0.7438,0,31,31,31,1,1,OLD,OLD,,,,,,,,
,,,,,,,,,,,,,,,,TestWords/VU_WAI_NA.wav,,5f0856dbffe90703c92542eb,2021-07-15_22h45.09.277,Agingstudy_mst,2020.2.10,Win32,60,60e8550594adb1982c6cb1b5,60f0ac36793d14c6d06e3921,,,,,D,,,,,,,,,,,,,,,2,1,0.8173,0,32,32,32,1,2,NEW,SIMILAR,,,,,,,,
,,,,,,,,,,,,,,,,TestWords/DAI_RU_CHI.wav,,5f0856dbffe90703c92542eb,2021-07-15_22h45.09.277,Agingstudy_mst,2020.2.10,Win32,60,60e8550594adb1982c6cb1b5,60f0ac36793d14c6d06e3921,,,,,D,,,,,,,,,,,,,,,1,1,0.5761,0,33,33,33,1,1,OLD,OLD,,,,,,,,
,,,,,,,,,,,,,,,,TestWords/ZO_FU_RAI.wav,,5f0856dbffe90703c92542eb,2021-07-15_22h45.09.277,Agingstudy_mst,2020.2.10,Win32,60,60e8550594adb1982c6cb1b5,60f0ac36793d14c6d06e3921,,,,,D,,,,,,,,,,,,,,,2,1,0.7675,0,34,34,34,1,2,NEW,SIMILAR,,,,,,,,
,,,,,,,,,,,,,,,,TestWords/BA_LI_KAY.wav,,5f0856dbffe90703c92542eb,2021-07-15_22h45.09.277,Agingstudy_mst,2020.2.10,Win32,60,60e8550594adb1982c6cb1b5,60f0ac36793d14c6d06e3921,,,,,D,,,,,,,,,,,,,,,2,1,3.188099999,0,35,35,35,1,2,NEW,SIMILAR,,,,,,,,
,,,,,,,,,,,,,,,,TestWords/KO_SU_FAI.wav,,5f0856dbffe90703c92542eb,2021-07-15_22h45.09.277,Agingstudy_mst,2020.2.10,Win32,60,60e8550594adb1982c6cb1b5,60f0ac36793d14c6d06e3921,,,,,D,,,,,,,,,,,,,,,2,1,0.9861,0,36,36,36,1,2,NEW,NEW,,,,,,,,
,,,,,,,,,,,,,,,,TestWords/KAI_LAY_TA.wav,,5f0856dbffe90703c92542eb,2021-07-15_22h45.09.277,Agingstudy_mst,2020.2.10,Win32,60,60e8550594adb1982c6cb1b5,60f0ac36793d14c6d06e3921,,,,,D,,,,,,,,,,,,,,,2,0,0.6754,0,37,37,37,1,1,OLD,OLD,,,,,,,,
,,,,,,,,,,,,,,,,TestWords/RAY_PA_TI.wav,,5f0856dbffe90703c92542eb,2021-07-15_22h45.09.277,Agingstudy_mst,2020.2.10,Win32,60,60e8550594adb1982c6cb1b5,60f0ac36793d14c6d06e3921,,,,,D,,,,,,,,,,,,,,,1,1,0.6078,0,38,38,38,1,1,OLD,OLD,,,,,,,,
,,,,,,,,,,,,,,,,TestWords/GA_MU_ZI.wav,,5f0856dbffe90703c92542eb,2021-07-15_22h45.09.277,Agingstudy_mst,2020.2.10,Win32,60,60e8550594adb1982c6cb1b5,60f0ac36793d14c6d06e3921,,,,,D,,,,,,,,,,,,,,,1,1,0.4345,0,39,39,39,1,1,OLD,OLD,,,,,,,,
,,,,,,,,,,,,,,,,TestWords/NA_VU_WAI.wav,,5f0856dbffe90703c92542eb,2021-07-15_22h45.09.277,Agingstudy_mst,2020.2.10,Win32,60,60e8550594adb1982c6cb1b5,60f0ac36793d14c6d06e3921,,,,,D,,,,,,,,,,,,,,,1,0,0.9711,0,40,40,40,1,2,NEW,SIMILAR,,,,,,,,
,,,,,,,,,,,,,,,,TestWords/DAI_RU_CHI.wav,,5f0856dbffe90703c92542eb,2021-07-15_22h45.09.277,Agingstudy_mst,2020.2.10,Win32,60,60e8550594adb1982c6cb1b5,60f0ac36793d14c6d06e3921,,,,,D,,,,,,,,,,,,,,,1,1,0.267400001,0,41,41,41,1,1,OLD,OLD,,,,,,,,
,,,,,,,,,,,,,,,,TestWords/KO_SU_FAI.wav,,5f0856dbffe90703c92542eb,2021-07-15_22h45.09.277,Agingstudy_mst,2020.2.10,Win32,60,60e8550594adb1982c6cb1b5,60f0ac36793d14c6d06e3921,,,,,D,,,,,,,,,,,,,,,2,0,1.9892,0,42,42,42,1,1,OLD,OLD,,,,,,,,
,,,,,,,,,,,,,,,,TestWords/NA_WAI_VU.wav,,5f0856dbffe90703c92542eb,2021-07-15_22h45.09.277,Agingstudy_mst,2020.2.10,Win32,60,60e8550594adb1982c6cb1b5,60f0ac36793d14c6d06e3921,,,,,D,,,,,,,,,,,,,,,1,0,2.4745,0,43,43,43,1,2,NEW,SIMILAR,,,,,,,,
,,,,,,,,,,,,,,,,TestWords/KAI_LAY_TA.wav,,5f0856dbffe90703c92542eb,2021-07-15_22h45.09.277,Agingstudy_mst,2020.2.10,Win32,60,60e8550594adb1982c6cb1b5,60f0ac36793d14c6d06e3921,,,,,D,,,,,,,,,,,,,,,1,1,1.236099999,0,44,44,44,1,1,OLD,OLD,,,,,,,,
,,,,,,,,,,,,,,,,TestWords/SI_VAI_CHU.wav,,5f0856dbffe90703c92542eb,2021-07-15_22h45.09.277,Agingstudy_mst,2020.2.10,Win32,60,60e8550594adb1982c6cb1b5,60f0ac36793d14c6d06e3921,,,,,D,,,,,,,,,,,,,,,2,1,2.505,0,45,45,45,1,2,NEW,NEW,,,,,,,,
,,,,,,,,,,,,,,,,TestWords/RAY_PA_TI.wav,,5f0856dbffe90703c92542eb,2021-07-15_22h45.09.277,Agingstudy_mst,2020.2.10,Win32,60,60e8550594adb1982c6cb1b5,60f0ac36793d14c6d06e3921,,,,,D,,,,,,,,,,,,,,,1,1,0.6182,0,46,46,46,1,1,OLD,OLD,,,,,,,,
,,,,,,,,,,,,,,,,TestWords/GA_MU_ZI.wav,,5f0856dbffe90703c92542eb,2021-07-15_22h45.09.277,Agingstudy_mst,2020.2.10,Win32,60,60e8550594adb1982c6cb1b5,60f0ac36793d14c6d06e3921,,,,,D,,,,,,,,,,,,,,,1,1,0.6343,0,47,47,47,1,1,OLD,OLD,,,,,,,,
,,,,,,,,,,,,,,,,TestWords/LI_KAY_BA.wav,,5f0856dbffe90703c92542eb,2021-07-15_22h45.09.277,Agingstudy_mst,2020.2.10,Win32,60,60e8550594adb1982c6cb1b5,60f0ac36793d14c6d06e3921,,,,,D,,,,,,,,,,,,,,,1,0,0.6169,0,48,48,48,1,2,NEW,SIMILAR,,,,,,,,
,,,,,,,,,,,,,,,,TestWords/KO_SU_FAI.wav,,5f0856dbffe90703c92542eb,2021-07-15_22h45.09.277,Agingstudy_mst,2020.2.10,Win32,60,60e8550594adb1982c6cb1b5,60f0ac36793d14c6d06e3921,,,,,D,,,,,,,,,,,,,,,2,0,1.5053,0,49,49,49,1,1,OLD,OLD,,,,,,,,
,,,,,,,,,,,,,,,,TestWords/DAI_RU_CHI.wav,,5f0856dbffe90703c92542eb,2021-07-15_22h45.09.277,Agingstudy_mst,2020.2.10,Win32,60,60e8550594adb1982c6cb1b5,60f0ac36793d14c6d06e3921,,,,,D,,,,,,,,,,,,,,,1,1,1.1766,0,50,50,50,1,1,OLD,OLD,,,,,,,,
,,,,,,,,,,,,,,,,TestWords/DAY_PU_MO.wav,,5f0856dbffe90703c92542eb,2021-07-15_22h45.09.277,Agingstudy_mst,2020.2.10,Win32,60,60e8550594adb1982c6cb1b5,60f0ac36793d14c6d06e3921,,,,,D,,,,,,,,,,,,,,,2,1,1.201299999,0,51,51,51,1,2,NEW,NEW,,,,,,,,
,,,,,,,,,,,,,,,,TestWords/KAI_LAY_TA.wav,,5f0856dbffe90703c92542eb,2021-07-15_22h45.09.277,Agingstudy_mst,2020.2.10,Win32,60,60e8550594adb1982c6cb1b5,60f0ac36793d14c6d06e3921,,,,,D,,,,,,,,,,,,,,,2,0,1.1704,0,52,52,52,1,1,OLD,OLD,,,,,,,,
,,,,,,,,,,,,,,,,TestWords/LU_HAI_BO.wav,,5f0856dbffe90703c92542eb,2021-07-15_22h45.09.277,Agingstudy_mst,2020.2.10,Win32,60,60e8550594adb1982c6cb1b5,60f0ac36793d14c6d06e3921,,,,,D,,,,,,,,,,,,,,,2,1,0.5544,0,53,53,53,1,2,NEW,NEW,,,,,,,,
,,,,,,,,,,,,,,,,TestWords/RAY_PA_TI.wav,,5f0856dbffe90703c92542eb,2021-07-15_22h45.09.277,Agingstudy_mst,2020.2.10,Win32,60,60e8550594adb1982c6cb1b5,60f0ac36793d14c6d06e3921,,,,,D,,,,,,,,,,,,,,,1,1,0.802400001,0,54,54,54,1,1,OLD,OLD,,,,,,,,
,,,,,,,,,,,,,,,,TestWords/GA_MU_ZI.wav,,5f0856dbffe90703c92542eb,2021-07-15_22h45.09.277,Agingstudy_mst,2020.2.10,Win32,60,60e8550594adb1982c6cb1b5,60f0ac36793d14c6d06e3921,,,,,D,,,,,,,,,,,,,,,1,1,2.7523,0,55,55,55,1,1,OLD,OLD,,,,,,,,
,,,,,,,,,,,,,,,,TestWords/KO_SU_FAI.wav,,5f0856dbffe90703c92542eb,2021-07-15_22h45.09.277,Agingstudy_mst,2020.2.10,Win32,60,60e8550594adb1982c6cb1b5,60f0ac36793d14c6d06e3921,,,,,D,,,,,,,,,,,,,,,1,1,1.3094,0,56,56,56,1,1,OLD,OLD,,,,,,,,
,,,,,,,,,,,,,,,,TestWords/TAI_SA_GI.wav,,5f0856dbffe90703c92542eb,2021-07-15_22h45.09.277,Agingstudy_mst,2020.2.10,Win32,60,60e8550594adb1982c6cb1b5,60f0ac36793d14c6d06e3921,,,,,D,,,,,,,,,,,,,,,2,1,0.503099999,0,57,57,57,1,2,NEW,NEW,,,,,,,,
,,,,,,,,,,,,,,,,TestWords/DAY_MO_PU.wav,,5f0856dbffe90703c92542eb,2021-07-15_22h45.09.277,Agingstudy_mst,2020.2.10,Win32,60,60e8550594adb1982c6cb1b5,60f0ac36793d14c6d06e3921,,,,,D,,,,,,,,,,,,,,,2,1,1.1423,0,58,58,58,1,2,NEW,SIMILAR,,,,,,,,
,,,,,,,,,,,,,,,,TestWords/DAI_RU_CHI.wav,,5f0856dbffe90703c92542eb,2021-07-15_22h45.09.277,Agingstudy_mst,2020.2.10,Win32,60,60e8550594adb1982c6cb1b5,60f0ac36793d14c6d06e3921,,,,,D,,,,,,,,,,,,,,,1,1,0.606700001,0,59,59,59,1,1,OLD,OLD,,,,,,,,
,,,,,,,,,,,,,,,,TestWords/KAI_LAY_TA.wav,,5f0856dbffe90703c92542eb,2021-07-15_22h45.09.277,Agingstudy_mst,2020.2.10,Win32,60,60e8550594adb1982c6cb1b5,60f0ac36793d14c6d06e3921,,,,,D,,,,,,,,,,,,,,,2,0,0.551,0,60,60,60,1,1,OLD,OLD,,,,,,,,
,,,,,,,,,,,,,,,,TestWords/LA_ZAY_CHAI.wav,,5f0856dbffe90703c92542eb,2021-07-15_22h45.09.277,Agingstudy_mst,2020.2.10,Win32,60,60e8550594adb1982c6cb1b5,60f0ac36793d14c6d06e3921,,,,,D,,,,,,,,,,,,,,,2,1,0.7344,0,61,61,61,1,2,NEW,NEW,,,,,,,,
,,,,,,,,,,,,,,,,TestWords/RAY_PA_TI.wav,,5f0856dbffe90703c92542eb,2021-07-15_22h45.09.277,Agingstudy_mst,2020.2.10,Win32,60,60e8550594adb1982c6cb1b5,60f0ac36793d14c6d06e3921,,,,,D,,,,,,,,,,,,,,,1,1,0.4675,0,62,62,62,1,1,OLD,OLD,,,,,,,,
,,,,,,,,,,,,,,,,TestWords/KO_SU_FAI.wav,,5f0856dbffe90703c92542eb,2021-07-15_22h45.09.277,Agingstudy_mst,2020.2.10,Win32,60,60e8550594adb1982c6cb1b5,60f0ac36793d14c6d06e3921,,,,,D,,,,,,,,,,,,,,,1,1,0.7053,0,63,63,63,1,1,OLD,OLD,,,,,,,,
,,,,,,,,,,,,,,,,TestWords/GA_MU_ZI.wav,,5f0856dbffe90703c92542eb,2021-07-15_22h45.09.277,Agingstudy_mst,2020.2.10,Win32,60,60e8550594adb1982c6cb1b5,60f0ac36793d14c6d06e3921,,,,,D,,,,,,,,,,,,,,,1,1,0.8395,0,64,64,64,1,1,OLD,OLD,,,,,,,,
,,,,,,,,,,,,,,,,TestWords/GI_TAI_SA.wav,,5f0856dbffe90703c92542eb,2021-07-15_22h45.09.277,Agingstudy_mst,2020.2.10,Win32,60,60e8550594adb1982c6cb1b5,60f0ac36793d14c6d06e3921,,,,,D,,,,,,,,,,,,,,,2,1,0.3678,0,65,65,65,1,2,NEW,SIMILAR,,,,,,,,
,,,,,,,,,,,,,,,,TestWords/MO_DAY_PU.wav,,5f0856dbffe90703c92542eb,2021-07-15_22h45.09.277,Agingstudy_mst,2020.2.10,Win32,60,60e8550594adb1982c6cb1b5,60f0ac36793d14c6d06e3921,,,,,D,,,,,,,,,,,,,,,2,1,1.6503,0,66,66,66,1,2,NEW,SIMILAR,,,,,,,,
,,,,,,,,,,,,,,,,TestWords/KAI_LAY_TA.wav,,5f0856dbffe90703c92542eb,2021-07-15_22h45.09.277,Agingstudy_mst,2020.2.10,Win32,60,60e8550594adb1982c6cb1b5,60f0ac36793d14c6d06e3921,,,,,D,,,,,,,,,,,,,,,2,0,0.9557,0,67,67,67,1,1,OLD,OLD,,,,,,,,
,,,,,,,,,,,,,,,,TestWords/KO_SU_FAI.wav,,5f0856dbffe90703c92542eb,2021-07-15_22h45.09.277,Agingstudy_mst,2020.2.10,Win32,60,60e8550594adb1982c6cb1b5,60f0ac36793d14c6d06e3921,,,,,D,,,,,,,,,,,,,,,1,1,0.7773,0,68,68,68,1,1,OLD,OLD,,,,,,,,
,,,,,,,,,,,,,,,,TestWords/RAY_PA_TI.wav,,5f0856dbffe90703c92542eb,2021-07-15_22h45.09.277,Agingstudy_mst,2020.2.10,Win32,60,60e8550594adb1982c6cb1b5,60f0ac36793d14c6d06e3921,,,,,D,,,,,,,,,,,,,,,1,1,0.2509,0,69,69,69,1,1,OLD,OLD,,,,,,,,
,,,,,,,,,,,,,,,,TestWords/NU_CHAY_SO.wav,,5f0856dbffe90703c92542eb,2021-07-15_22h45.09.277,Agingstudy_mst,2020.2.10,Win32,60,60e8550594adb1982c6cb1b5,60f0ac36793d14c6d06e3921,,,,,D,,,,,,,,,,,,,,,2,1,0.5918,0,70,70,70,1,2,NEW,NEW,,,,,,,,
,,,,,,,,,,,,,,,,TestWords/GA_MU_ZI.wav,,5f0856dbffe90703c92542eb,2021-07-15_22h45.09.277,Agingstudy_mst,2020.2.10,Win32,60,60e8550594adb1982c6cb1b5,60f0ac36793d14c6d06e3921,,,,,D,,,,,,,,,,,,,,,1,1,0.7112,0,71,71,71,1,1,OLD,OLD,,,,,,,,
,,,,,,,,,,,,,,,,TestWords/DAI_RU_CHI.wav,,5f0856dbffe90703c92542eb,2021-07-15_22h45.09.277,Agingstudy_mst,2020.2.10,Win32,60,60e8550594adb1982c6cb1b5,60f0ac36793d14c6d06e3921,,,,,D,,,,,,,,,,,,,,,1,1,0.270700001,0,72,72,72,1,1,OLD,OLD,,,,,,,,
,,,,,,,,,,,,,,,,TestWords/SA_TAI_GI.wav,,5f0856dbffe90703c92542eb,2021-07-15_22h45.09.277,Agingstudy_mst,2020.2.10,Win32,60,60e8550594adb1982c6cb1b5,60f0ac36793d14c6d06e3921,,,,,D,,,,,,,,,,,,,,,1,0,3.857599999,0,73,73,73,1,2,NEW,SIMILAR,,,,,,,,
,,,,,,,,,,,,,,,,TestWords/PU_DAY_MO.wav,,5f0856dbffe90703c92542eb,2021-07-15_22h45.09.277,Agingstudy_mst,2020.2.10,Win32,60,60e8550594adb1982c6cb1b5,60f0ac36793d14c6d06e3921,,,,,D,,,,,,,,,,,,,,,2,1,1.259299999,0,74,74,74,1,2,NEW,SIMILAR,,,,,,,,
,,,,,,,,,,,,,,,,TestWords/KO_SU_FAI.wav,,5f0856dbffe90703c92542eb,2021-07-15_22h45.09.277,Agingstudy_mst,2020.2.10,Win32,60,60e8550594adb1982c6cb1b5,60f0ac36793d14c6d06e3921,,,,,D,,,,,,,,,,,,,,,1,1,0.5713,0,75,75,75,1,1,OLD,OLD,,,,,,,,
,,,,,,,,,,,,,,,,TestWords/KAI_LAY_TA.wav,,5f0856dbffe90703c92542eb,2021-07-15_22h45.09.277,Agingstudy_mst,2020.2.10,Win32,60,60e8550594adb1982c6cb1b5,60f0ac36793d14c6d06e3921,,,,,D,,,,,,,,,,,,,,,1,1,0.9945,0,76,76,76,1,1,OLD,OLD,,,,,,,,
,,,,,,,,,,,,,,,,TestWords/HA_SI_JAI.wav,,5f0856dbffe90703c92542eb,2021-07-15_22h45.09.277,Agingstudy_mst,2020.2.10,Win32,60,60e8550594adb1982c6cb1b5,60f0ac36793d14c6d06e3921,,,,,D,,,,,,,,,,,,,,,2,1,0.5945,0,77,77,77,1,2,NEW,NEW,,,,,,,,
,,,,,,,,,,,,,,,,TestWords/RAY_PA_TI.wav,,5f0856dbffe90703c92542eb,2021-07-15_22h45.09.277,Agingstudy_mst,2020.2.10,Win32,60,60e8550594adb1982c6cb1b5,60f0ac36793d14c6d06e3921,,,,,D,,,,,,,,,,,,,,,1,1,0.3178,0,78,78,78,1,1,OLD,OLD,,,,,,,,
,,,,,,,,,,,,,,,,TestWords/DAI_RU_CHI.wav,,5f0856dbffe90703c92542eb,2021-07-15_22h45.09.277,Agingstudy_mst,2020.2.10,Win32,60,60e8550594adb1982c6cb1b5,60f0ac36793d14c6d06e3921,,,,,D,,,,,,,,,,,,,,,1,1,0.1183,0,79,79,79,1,1,OLD,OLD,,,,,,,,
,,,,,,,,,,,,,,,,TestWords/GA_MU_ZI.wav,,5f0856dbffe90703c92542eb,2021-07-15_22h45.09.277,Agingstudy_mst,2020.2.10,Win32,60,60e8550594adb1982c6cb1b5,60f0ac36793d14c6d06e3921,,,,,D,,,,,,,,,,,,,,,1,1,0.203,0,80,80,80,1,1,OLD,OLD,,,,,,,,
,,,,,,,,,,,,,,,,TestWords/SA_GI_TAI.wav,,5f0856dbffe90703c92542eb,2021-07-15_22h45.09.277,Agingstudy_mst,2020.2.10,Win32,60,60e8550594adb1982c6cb1b5,60f0ac36793d14c6d06e3921,,,,,D,,,,,,,,,,,,,,,1,0,0.5228,0,81,81,81,1,2,NEW,SIMILAR,,,,,,,,
,,,,,,,,,,,,,,,,TestWords/KO_SU_FAI.wav,,5f0856dbffe90703c92542eb,2021-07-15_22h45.09.277,Agingstudy_mst,2020.2.10,Win32,60,60e8550594adb1982c6cb1b5,60f0ac36793d14c6d06e3921,,,,,D,,,,,,,,,,,,,,,1,1,0.4181,0,82,82,82,1,1,OLD,OLD,,,,,,,,
,,,,,,,,,,,,,,,,TestWords/KAI_LAY_TA.wav,,5f0856dbffe90703c92542eb,2021-07-15_22h45.09.277,Agingstudy_mst,2020.2.10,Win32,60,60e8550594adb1982c6cb1b5,60f0ac36793d14c6d06e3921,,,,,D,,,,,,,,,,,,,,,1,1,0.570099999,0,83,83,83,1,1,OLD,OLD,,,,,,,,
,,,,,,,,,,,,,,,,TestWords/PU_MO_DAY.wav,,5f0856dbffe90703c92542eb,2021-07-15_22h45.09.277,Agingstudy_mst,2020.2.10,Win32,60,60e8550594adb1982c6cb1b5,60f0ac36793d14c6d06e3921,,,,,D,,,,,,,,,,,,,,,1,0,0.6219,0,84,84,84,1,2,NEW,SIMILAR,,,,,,,,
,,,,,,,,,,,,,,,,TestWords/RAY_PA_TI.wav,,5f0856dbffe90703c92542eb,2021-07-15_22h45.09.277,Agingstudy_mst,2020.2.10,Win32,60,60e8550594adb1982c6cb1b5,60f0ac36793d14c6d06e3921,,,,,D,,,,,,,,,,,,,,,1,1,0.2916,0,85,85,85,1,1,OLD,OLD,,,,,,,,
,,,,,,,,,,,,,,,,TestWords/HI_NAY_VA.wav,,5f0856dbffe90703c92542eb,2021-07-15_22h45.09.277,Agingstudy_mst,2020.2.10,Win32,60,60e8550594adb1982c6cb1b5,60f0ac36793d14c6d06e3921,,,,,D,,,,,,,,,,,,,,,2,1,0.227,0,86,86,86,1,2,NEW,NEW,,,,,,,,
,,,,,,,,,,,,,,,,TestWords/DAI_RU_CHI.wav,,5f0856dbffe90703c92542eb,2021-07-15_22h45.09.277,Agingstudy_mst,2020.2.10,Win32,60,60e8550594adb1982c6cb1b5,60f0ac36793d14c6d06e3921,,,,,D,,,,,,,,,,,,,,,1,1,0.251,0,87,87,87,1,1,OLD,OLD,,,,,,,,
,,,,,,,,,,,,,,,,TestWords/TAI_GI_SA.wav,,5f0856dbffe90703c92542eb,2021-07-15_22h45.09.277,Agingstudy_mst,2020.2.10,Win32,60,60e8550594adb1982c6cb1b5,60f0ac36793d14c6d06e3921,,,,,D,,,,,,,,,,,,,,,1,0,2.5347,0,88,88,88,1,2,NEW,SIMILAR,,,,,,,,
,,,,,,,,,,,,,,,,TestWords/KO_SU_FAI.wav,,5f0856dbffe90703c92542eb,2021-07-15_22h45.09.277,Agingstudy_mst,2020.2.10,Win32,60,60e8550594adb1982c6cb1b5,60f0ac36793d14c6d06e3921,,,,,D,,,,,,,,,,,,,,,1,1,0.410599999,0,89,89,89,1,1,OLD,OLD,,,,,,,,
,,,,,,,,,,,,,,,,TestWords/GA_MU_ZI.wav,,5f0856dbffe90703c92542eb,2021-07-15_22h45.09.277,Agingstudy_mst,2020.2.10,Win32,60,60e8550594adb1982c6cb1b5,60f0ac36793d14c6d06e3921,,,,,D,,,,,,,,,,,,,,,1,1,0.283799999,0,90,90,90,1,1,OLD,OLD,,,,,,,,
,,,,,,,,,,,,,,,,TestWords/PAI_LU_WA.wav,,5f0856dbffe90703c92542eb,2021-07-15_22h45.09.277,Agingstudy_mst,2020.2.10,Win32,60,60e8550594adb1982c6cb1b5,60f0ac36793d14c6d06e3921,,,,,D,,,,,,,,,,,,,,,2,1,0.078,0,91,91,91,1,2,NEW,NEW,,,,,,,,
,,,,,,,,,,,,,,,,TestWords/KAI_LAY_TA.wav,,5f0856dbffe90703c92542eb,2021-07-15_22h45.09.277,Agingstudy_mst,2020.2.10,Win32,60,60e8550594adb1982c6cb1b5,60f0ac36793d14c6d06e3921,,,,,D,,,,,,,,,,,,,,,2,0,1.6756,0,92,92,92,1,1,OLD,OLD,,,,,,,,
,,,,,,,,,,,,,,,,TestWords/MO_PU_DAY.wav,,5f0856dbffe90703c92542eb,2021-07-15_22h45.09.277,Agingstudy_mst,2020.2.10,Win32,60,60e8550594adb1982c6cb1b5,60f0ac36793d14c6d06e3921,,,,,D,,,,,,,,,,,,,,,1,0,1.9541,0,93,93,93,1,2,NEW,SIMILAR,,,,,,,,
,,,,,,,,,,,,,,,,TestWords/KO_SU_FAI.wav,,5f0856dbffe90703c92542eb,2021-07-15_22h45.09.277,Agingstudy_mst,2020.2.10,Win32,60,60e8550594adb1982c6cb1b5,60f0ac36793d14c6d06e3921,,,,,D,,,,,,,,,,,,,,,1,1,1.084,0,94,94,94,1,1,OLD,OLD,,,,,,,,
,,,,,,,,,,,,,,,,TestWords/GI_SA_TAI.wav,,5f0856dbffe90703c92542eb,2021-07-15_22h45.09.277,Agingstudy_mst,2020.2.10,Win32,60,60e8550594adb1982c6cb1b5,60f0ac36793d14c6d06e3921,,,,,D,,,,,,,,,,,,,,,2,1,1.2904,0,95,95,95,1,2,NEW,SIMILAR,,,,,,,,
,,,,,,,,,,,,,,,,TestWords/HO_NAY_VA.wav,,5f0856dbffe90703c92542eb,2021-07-15_22h45.09.277,Agingstudy_mst,2020.2.10,Win32,60,60e8550594adb1982c6cb1b5,60f0ac36793d14c6d06e3921,,,,,D,,,,,,,,,,,,,,,2,1,0.9354,0,96,96,96,1,2,NEW,NEW,,,,,,,,
,,,,,,,,,,,,,,,,TestWords/GU_CHAI_PI.wav,,5f0856dbffe90703c92542eb,2021-07-15_22h45.09.277,Agingstudy_mst,2020.2.10,Win32,60,60e8550594adb1982c6cb1b5,60f0ac36793d14c6d06e3921,,,,,D,,,,,,,,,,,,,,,2,1,0.4257,0,97,97,97,1,2,NEW,NEW,,,,,,,,
,,,,,,,,,,,,,,,,TestWords/KO_SU_FAI.wav,,5f0856dbffe90703c92542eb,2021-07-15_22h45.09.277,Agingstudy_mst,2020.2.10,Win32,60,60e8550594adb1982c6cb1b5,60f0ac36793d14c6d06e3921,,,,,D,,,,,,,,,,,,,,,1,1,0.720099999,0,98,98,98,1,1,OLD,OLD,,,,,,,,
,,,,,,,,,,,,,,,,TestWords/WAI_RO_JU.wav,,5f0856dbffe90703c92542eb,2021-07-15_22h45.09.277,Agingstudy_mst,2020.2.10,Win32,60,60e8550594adb1982c6cb1b5,60f0ac36793d14c6d06e3921,,,,,D,,,,,,,,,,,,,,,2,1,0.584700001,0,99,99,99,1,2,NEW,NEW,,,,,,,,
,,,,,,,,,,,,,,,,,,5f0856dbffe90703c92542eb,2021-07-15_22h45.09.277,Agingstudy_mst,2020.2.10,Win32,60,60e8550594adb1982c6cb1b5,60f0ac36793d14c6d06e3921,,,,,,,,,,,,,,,,,,,,,,,,,,,,,,,0,0,0,0,1,,,
,,,,,,,,,,,,,,,,,,5f0856dbffe90703c92542eb,2021-07-15_22h45.09.277,Agingstudy_mst,2020.2.10,Win32,60,60e8550594adb1982c6cb1b5,60f0ac36793d14c6d06e3921,,,,,,,,,,,,,,,,,,,,,,,,,,,,,,,,,,,,return,9.4642,
