Welcome0Continue.keys,Welcome0Continue.rt,SoundCheckBegin.keys,SoundCheckBegin.rt,SoundCheckEndKey.keys,SoundCheckEndKey.rt,HeadphoneContinueKey.keys,HeadphoneContinueKey.rt,CheckResp.keys,CheckResp.corr,CheckResp.rt,HeadphoneLoop.thisRepN,HeadphoneLoop.thisTrialN,HeadphoneLoop.thisN,HeadphoneLoop.thisIndex,HeadphoneLoop.ran,File,Correct,participant,date,expName,psychopyVersion,OS,frameRate,ContinueKey8.keys,ContinueKey8.rt,MSTWelcomeContKey.keys,MSTWelcomeContKey.rt,Condition,MSTTrainIntroKey.keys,MSTTrainIntroKey.rt,MSTTrainKeys.keys,MSTTrainKeys.corr,MSTTrainKeys.rt,MSTTrainLoop.thisRepN,MSTTrainLoop.thisTrialN,MSTTrainLoop.thisN,MSTTrainLoop.thisIndex,MSTTrainLoop.ran,SoundFile,Type,MSTTestBeginKey.keys,MSTTestBeginKey.rt,MST_resp.keys,MST_resp.corr,MSTTestOptionKeys.rt,MSTPlayLoop.thisRepN,MSTPlayLoop.thisTrialN,MSTPlayLoop.thisN,MSTPlayLoop.thisIndex,MSTPlayLoop.ran,WordCorrect,Correct_type,WordType,MSTLoop.thisRepN,MSTLoop.thisTrialN,MSTLoop.thisN,MSTLoop.thisIndex,MSTLoop.ran,EndAllKey.keys,EndAllKey.rt,FeedbackResp.text
space,5.1835,space,4.2639,space,5.049,space,12.9068,2,1,3.3461,0,0,0,3,1,Headphone/t2_2.wav,2,5ff649fda2b5841ceef90ff0,2021-07-05_12h33.09.199,Agingstudy,2020.2.10,Win32,60,,,,,,,,,,,,,,,,,,,,,,,,,,,,,,,,,,,,,,
,,,,,,,,1,1,0.6265,0,1,1,1,1,Headphone/t1_2.wav,1,5ff649fda2b5841ceef90ff0,2021-07-05_12h33.09.199,Agingstudy,2020.2.10,Win32,60,,,,,,,,,,,,,,,,,,,,,,,,,,,,,,,,,,,,,,
,,,,,,,,3,1,0.7997,0,2,2,5,1,Headphone/t3_2.wav,3,5ff649fda2b5841ceef90ff0,2021-07-05_12h33.09.199,Agingstudy,2020.2.10,Win32,60,,,,,,,,,,,,,,,,,,,,,,,,,,,,,,,,,,,,,,
,,,,,,,,3,1,0.3455,0,3,3,4,1,Headphone/t3_1.wav,3,5ff649fda2b5841ceef90ff0,2021-07-05_12h33.09.199,Agingstudy,2020.2.10,Win32,60,,,,,,,,,,,,,,,,,,,,,,,,,,,,,,,,,,,,,,
,,,,,,,,1,1,0.4472,0,4,4,0,1,Headphone/t1_1.wav,1,5ff649fda2b5841ceef90ff0,2021-07-05_12h33.09.199,Agingstudy,2020.2.10,Win32,60,,,,,,,,,,,,,,,,,,,,,,,,,,,,,,,,,,,,,,
,,,,,,,,2,1,0.2937,0,5,5,2,1,Headphone/t2_1.wav,2,5ff649fda2b5841ceef90ff0,2021-07-05_12h33.09.199,Agingstudy,2020.2.10,Win32,60,,,,,,,,,,,,,,,,,,,,,,,,,,,,,,,,,,,,,,
,,,,,,,,,,,,,,,,,2,5ff649fda2b5841ceef90ff0,2021-07-05_12h33.09.199,Agingstudy,2020.2.10,Win32,60,space,13.3016,space,6.2326,1,space,3.4882,2,1,2.8221,0,0,0,0,1,Training/FO_YI_LAY.wav,NEW,,,,,,,,,,,,,,,,,,,,,
,,,,,,,,,,,,,,,,,1,5ff649fda2b5841ceef90ff0,2021-07-05_12h33.09.199,Agingstudy,2020.2.10,Win32,60,,,,,,,,1,1,1.4408,0,1,1,1,1,Training/FO_YI_LAY.wav,OLD,,,,,,,,,,,,,,,,,,,,,
,,,,,,,,,,,,,,,,,2,5ff649fda2b5841ceef90ff0,2021-07-05_12h33.09.199,Agingstudy,2020.2.10,Win32,60,,,,,,,,2,1,4.5643,0,2,2,2,1,Training/YO_BU_JAY.wav,NEW,,,,,,,,,,,,,,,,,,,,,
,,,,,,,,,,,,,,,,,2,5ff649fda2b5841ceef90ff0,2021-07-05_12h33.09.199,Agingstudy,2020.2.10,Win32,60,,,,,,,,2,1,3.2706,0,3,3,3,1,Training/JAY_YO_BU.wav,SIMILAR,,,,,,,,,,,,,,,,,,,,,
,,,,,,,,,,,,,,,,,1,5ff649fda2b5841ceef90ff0,2021-07-05_12h33.09.199,Agingstudy,2020.2.10,Win32,60,,,,,,,,1,1,3.9778,0,4,4,4,1,Training/FO_YI_LAY.wav,OLD,,,,,,,,,,,,,,,,,,,,,
,,,,,,,,,,,,,,,,TestWords/CHU_LA_PAY.wav,,5ff649fda2b5841ceef90ff0,2021-07-05_12h33.09.199,Agingstudy,2020.2.10,Win32,60,,,,,D,,,,,,,,,,,,,space,5.5342,2,1,3.1277,0,0,0,0,1,2,NEW,NEW,,,,,,,,
,,,,,,,,,,,,,,,,TestWords/FI_GU_CHA.wav,,5ff649fda2b5841ceef90ff0,2021-07-05_12h33.09.199,Agingstudy,2020.2.10,Win32,60,,,,,D,,,,,,,,,,,,,,,2,1,3.4995,0,1,1,1,1,2,NEW,NEW,,,,,,,,
,,,,,,,,,,,,,,,,TestWords/RAI_ZO_FU.wav,,5ff649fda2b5841ceef90ff0,2021-07-05_12h33.09.199,Agingstudy,2020.2.10,Win32,60,,,,,D,,,,,,,,,,,,,,,2,1,3.2596,0,2,2,2,1,2,NEW,NEW,,,,,,,,
,,,,,,,,,,,,,,,,TestWords/DAI_RU_CHI.wav,,5ff649fda2b5841ceef90ff0,2021-07-05_12h33.09.199,Agingstudy,2020.2.10,Win32,60,,,,,D,,,,,,,,,,,,,,,2,1,1.2072,0,3,3,3,1,2,NEW,NEW,,,,,,,,
,,,,,,,,,,,,,,,,TestWords/GA_MU_ZI.wav,,5ff649fda2b5841ceef90ff0,2021-07-05_12h33.09.199,Agingstudy,2020.2.10,Win32,60,,,,,D,,,,,,,,,,,,,,,2,1,0.4856,0,4,4,4,1,2,NEW,NEW,,,,,,,,
,,,,,,,,,,,,,,,,TestWords/DA_CHU_VAI.wav,,5ff649fda2b5841ceef90ff0,2021-07-05_12h33.09.199,Agingstudy,2020.2.10,Win32,60,,,,,D,,,,,,,,,,,,,,,2,1,1.0957,0,5,5,5,1,2,NEW,NEW,,,,,,,,
,,,,,,,,,,,,,,,,TestWords/ZO_RAI_FU.wav,,5ff649fda2b5841ceef90ff0,2021-07-05_12h33.09.199,Agingstudy,2020.2.10,Win32,60,,,,,D,,,,,,,,,,,,,,,2,1,1.6438,0,6,6,6,1,2,NEW,SIMILAR,,,,,,,,
,,,,,,,,,,,,,,,,TestWords/BA_KAY_LI.wav,,5ff649fda2b5841ceef90ff0,2021-07-05_12h33.09.199,Agingstudy,2020.2.10,Win32,60,,,,,D,,,,,,,,,,,,,,,2,1,0.2847,0,7,7,7,1,2,NEW,NEW,,,,,,,,
,,,,,,,,,,,,,,,,TestWords/VAI_HO_LA.wav,,5ff649fda2b5841ceef90ff0,2021-07-05_12h33.09.199,Agingstudy,2020.2.10,Win32,60,,,,,D,,,,,,,,,,,,,,,2,1,0.3079,0,8,8,8,1,2,NEW,NEW,,,,,,,,
,,,,,,,,,,,,,,,,TestWords/DAI_RU_CHI.wav,,5ff649fda2b5841ceef90ff0,2021-07-05_12h33.09.199,Agingstudy,2020.2.10,Win32,60,,,,,D,,,,,,,,,,,,,,,1,1,0.6575,0,9,9,9,1,1,OLD,OLD,,,,,,,,
,,,,,,,,,,,,,,,,TestWords/RAY_PA_TI.wav,,5ff649fda2b5841ceef90ff0,2021-07-05_12h33.09.199,Agingstudy,2020.2.10,Win32,60,,,,,D,,,,,,,,,,,,,,,2,1,1.1847,0,10,10,10,1,2,NEW,NEW,,,,,,,,
,,,,,,,,,,,,,,,,TestWords/NO_WA_BAY.wav,,5ff649fda2b5841ceef90ff0,2021-07-05_12h33.09.199,Agingstudy,2020.2.10,Win32,60,,,,,D,,,,,,,,,,,,,,,2,1,0.4973,0,11,11,11,1,2,NEW,NEW,,,,,,,,
,,,,,,,,,,,,,,,,TestWords/GA_MU_ZI.wav,,5ff649fda2b5841ceef90ff0,2021-07-05_12h33.09.199,Agingstudy,2020.2.10,Win32,60,,,,,D,,,,,,,,,,,,,,,1,1,0.3088,0,12,12,12,1,1,OLD,OLD,,,,,,,,
,,,,,,,,,,,,,,,,TestWords/WAI_VU_NA.wav,,5ff649fda2b5841ceef90ff0,2021-07-05_12h33.09.199,Agingstudy,2020.2.10,Win32,60,,,,,D,,,,,,,,,,,,,,,2,1,0.7689,0,13,13,13,1,2,NEW,NEW,,,,,,,,
,,,,,,,,,,,,,,,,TestWords/KAY_LI_BA.wav,,5ff649fda2b5841ceef90ff0,2021-07-05_12h33.09.199,Agingstudy,2020.2.10,Win32,60,,,,,D,,,,,,,,,,,,,,,2,1,0.9177,0,14,14,14,1,2,NEW,SIMILAR,,,,,,,,
,,,,,,,,,,,,,,,,TestWords/FU_RAI_ZO.wav,,5ff649fda2b5841ceef90ff0,2021-07-05_12h33.09.199,Agingstudy,2020.2.10,Win32,60,,,,,D,,,,,,,,,,,,,,,1,0,0.4287,0,15,15,15,1,2,NEW,SIMILAR,,,,,,,,
,,,,,,,,,,,,,,,,TestWords/KAI_LAY_TA.wav,,5ff649fda2b5841ceef90ff0,2021-07-05_12h33.09.199,Agingstudy,2020.2.10,Win32,60,,,,,D,,,,,,,,,,,,,,,1,0,1.1054,0,16,16,16,1,2,NEW,NEW,,,,,,,,
,,,,,,,,,,,,,,,,TestWords/RAY_PA_TI.wav,,5ff649fda2b5841ceef90ff0,2021-07-05_12h33.09.199,Agingstudy,2020.2.10,Win32,60,,,,,D,,,,,,,,,,,,,,,1,1,0.5173,0,17,17,17,1,1,OLD,OLD,,,,,,,,
,,,,,,,,,,,,,,,,TestWords/DAI_RU_CHI.wav,,5ff649fda2b5841ceef90ff0,2021-07-05_12h33.09.199,Agingstudy,2020.2.10,Win32,60,,,,,D,,,,,,,,,,,,,,,2,0,1.1753,0,18,18,18,1,1,OLD,OLD,,,,,,,,
,,,,,,,,,,,,,,,,TestWords/WAI_NA_VU.wav,,5ff649fda2b5841ceef90ff0,2021-07-05_12h33.09.199,Agingstudy,2020.2.10,Win32,60,,,,,D,,,,,,,,,,,,,,,2,1,1.0021,0,19,19,19,1,2,NEW,SIMILAR,,,,,,,,
,,,,,,,,,,,,,,,,TestWords/GA_MU_ZI.wav,,5ff649fda2b5841ceef90ff0,2021-07-05_12h33.09.199,Agingstudy,2020.2.10,Win32,60,,,,,D,,,,,,,,,,,,,,,2,0,2.8506,0,20,20,20,1,1,OLD,OLD,,,,,,,,
,,,,,,,,,,,,,,,,TestWords/KAY_BA_LI.wav,,5ff649fda2b5841ceef90ff0,2021-07-05_12h33.09.199,Agingstudy,2020.2.10,Win32,60,,,,,D,,,,,,,,,,,,,,,1,0,0.4471,0,21,21,21,1,2,NEW,SIMILAR,,,,,,,,
,,,,,,,,,,,,,,,,TestWords/KAI_LAY_TA.wav,,5ff649fda2b5841ceef90ff0,2021-07-05_12h33.09.199,Agingstudy,2020.2.10,Win32,60,,,,,D,,,,,,,,,,,,,,,2,0,0.3483,0,22,22,22,1,1,OLD,OLD,,,,,,,,
,,,,,,,,,,,,,,,,TestWords/FU_ZO_RAI.wav,,5ff649fda2b5841ceef90ff0,2021-07-05_12h33.09.199,Agingstudy,2020.2.10,Win32,60,,,,,D,,,,,,,,,,,,,,,1,0,0.2834,0,23,23,23,1,2,NEW,SIMILAR,,,,,,,,
,,,,,,,,,,,,,,,,TestWords/RAY_PA_TI.wav,,5ff649fda2b5841ceef90ff0,2021-07-05_12h33.09.199,Agingstudy,2020.2.10,Win32,60,,,,,D,,,,,,,,,,,,,,,1,1,0.3529,0,24,24,24,1,1,OLD,OLD,,,,,,,,
,,,,,,,,,,,,,,,,TestWords/DAI_RU_CHI.wav,,5ff649fda2b5841ceef90ff0,2021-07-05_12h33.09.199,Agingstudy,2020.2.10,Win32,60,,,,,D,,,,,,,,,,,,,,,1,1,0.5152,0,25,25,25,1,1,OLD,OLD,,,,,,,,
,,,,,,,,,,,,,,,,TestWords/VU_NA_WAI.wav,,5ff649fda2b5841ceef90ff0,2021-07-05_12h33.09.199,Agingstudy,2020.2.10,Win32,60,,,,,D,,,,,,,,,,,,,,,1,0,1.1173,0,26,26,26,1,2,NEW,SIMILAR,,,,,,,,
,,,,,,,,,,,,,,,,TestWords/RAI_FU_ZO.wav,,5ff649fda2b5841ceef90ff0,2021-07-05_12h33.09.199,Agingstudy,2020.2.10,Win32,60,,,,,D,,,,,,,,,,,,,,,2,1,0.5533,0,27,27,27,1,2,NEW,SIMILAR,,,,,,,,
,,,,,,,,,,,,,,,,TestWords/GA_MU_ZI.wav,,5ff649fda2b5841ceef90ff0,2021-07-05_12h33.09.199,Agingstudy,2020.2.10,Win32,60,,,,,D,,,,,,,,,,,,,,,1,1,0.3684,0,28,28,28,1,1,OLD,OLD,,,,,,,,
,,,,,,,,,,,,,,,,TestWords/LI_BA_KAY.wav,,5ff649fda2b5841ceef90ff0,2021-07-05_12h33.09.199,Agingstudy,2020.2.10,Win32,60,,,,,D,,,,,,,,,,,,,,,2,1,0.5006,0,29,29,29,1,2,NEW,SIMILAR,,,,,,,,
,,,,,,,,,,,,,,,,TestWords/KAI_LAY_TA.wav,,5ff649fda2b5841ceef90ff0,2021-07-05_12h33.09.199,Agingstudy,2020.2.10,Win32,60,,,,,D,,,,,,,,,,,,,,,1,1,1.0343,0,30,30,30,1,1,OLD,OLD,,,,,,,,
,,,,,,,,,,,,,,,,TestWords/RAY_PA_TI.wav,,5ff649fda2b5841ceef90ff0,2021-07-05_12h33.09.199,Agingstudy,2020.2.10,Win32,60,,,,,D,,,,,,,,,,,,,,,1,1,0.3416,0,31,31,31,1,1,OLD,OLD,,,,,,,,
,,,,,,,,,,,,,,,,TestWords/VU_WAI_NA.wav,,5ff649fda2b5841ceef90ff0,2021-07-05_12h33.09.199,Agingstudy,2020.2.10,Win32,60,,,,,D,,,,,,,,,,,,,,,2,1,0.6356,0,32,32,32,1,2,NEW,SIMILAR,,,,,,,,
,,,,,,,,,,,,,,,,TestWords/DAI_RU_CHI.wav,,5ff649fda2b5841ceef90ff0,2021-07-05_12h33.09.199,Agingstudy,2020.2.10,Win32,60,,,,,D,,,,,,,,,,,,,,,1,1,1.359,0,33,33,33,1,1,OLD,OLD,,,,,,,,
,,,,,,,,,,,,,,,,TestWords/ZO_FU_RAI.wav,,5ff649fda2b5841ceef90ff0,2021-07-05_12h33.09.199,Agingstudy,2020.2.10,Win32,60,,,,,D,,,,,,,,,,,,,,,1,0,0.5512,0,34,34,34,1,2,NEW,SIMILAR,,,,,,,,
,,,,,,,,,,,,,,,,TestWords/BA_LI_KAY.wav,,5ff649fda2b5841ceef90ff0,2021-07-05_12h33.09.199,Agingstudy,2020.2.10,Win32,60,,,,,D,,,,,,,,,,,,,,,2,1,1.767,0,35,35,35,1,2,NEW,SIMILAR,,,,,,,,
,,,,,,,,,,,,,,,,TestWords/KO_SU_FAI.wav,,5ff649fda2b5841ceef90ff0,2021-07-05_12h33.09.199,Agingstudy,2020.2.10,Win32,60,,,,,D,,,,,,,,,,,,,,,2,1,0.4108,0,36,36,36,1,2,NEW,NEW,,,,,,,,
,,,,,,,,,,,,,,,,TestWords/KAI_LAY_TA.wav,,5ff649fda2b5841ceef90ff0,2021-07-05_12h33.09.199,Agingstudy,2020.2.10,Win32,60,,,,,D,,,,,,,,,,,,,,,1,1,0.2637,0,37,37,37,1,1,OLD,OLD,,,,,,,,
,,,,,,,,,,,,,,,,TestWords/RAY_PA_TI.wav,,5ff649fda2b5841ceef90ff0,2021-07-05_12h33.09.199,Agingstudy,2020.2.10,Win32,60,,,,,D,,,,,,,,,,,,,,,1,1,0.2005,0,38,38,38,1,1,OLD,OLD,,,,,,,,
,,,,,,,,,,,,,,,,TestWords/GA_MU_ZI.wav,,5ff649fda2b5841ceef90ff0,2021-07-05_12h33.09.199,Agingstudy,2020.2.10,Win32,60,,,,,D,,,,,,,,,,,,,,,1,1,0.8259,0,39,39,39,1,1,OLD,OLD,,,,,,,,
,,,,,,,,,,,,,,,,TestWords/NA_VU_WAI.wav,,5ff649fda2b5841ceef90ff0,2021-07-05_12h33.09.199,Agingstudy,2020.2.10,Win32,60,,,,,D,,,,,,,,,,,,,,,1,0,0.2111,0,40,40,40,1,2,NEW,SIMILAR,,,,,,,,
,,,,,,,,,,,,,,,,TestWords/DAI_RU_CHI.wav,,5ff649fda2b5841ceef90ff0,2021-07-05_12h33.09.199,Agingstudy,2020.2.10,Win32,60,,,,,D,,,,,,,,,,,,,,,1,1,0.2034,0,41,41,41,1,1,OLD,OLD,,,,,,,,
,,,,,,,,,,,,,,,,TestWords/KO_SU_FAI.wav,,5ff649fda2b5841ceef90ff0,2021-07-05_12h33.09.199,Agingstudy,2020.2.10,Win32,60,,,,,D,,,,,,,,,,,,,,,1,1,0.6065,0,42,42,42,1,1,OLD,OLD,,,,,,,,
,,,,,,,,,,,,,,,,TestWords/NA_WAI_VU.wav,,5ff649fda2b5841ceef90ff0,2021-07-05_12h33.09.199,Agingstudy,2020.2.10,Win32,60,,,,,D,,,,,,,,,,,,,,,2,1,0.1709,0,43,43,43,1,2,NEW,SIMILAR,,,,,,,,
,,,,,,,,,,,,,,,,TestWords/KAI_LAY_TA.wav,,5ff649fda2b5841ceef90ff0,2021-07-05_12h33.09.199,Agingstudy,2020.2.10,Win32,60,,,,,D,,,,,,,,,,,,,,,2,0,0.6601,0,44,44,44,1,1,OLD,OLD,,,,,,,,
,,,,,,,,,,,,,,,,TestWords/SI_VAI_CHU.wav,,5ff649fda2b5841ceef90ff0,2021-07-05_12h33.09.199,Agingstudy,2020.2.10,Win32,60,,,,,D,,,,,,,,,,,,,,,2,1,1.5677,0,45,45,45,1,2,NEW,NEW,,,,,,,,
,,,,,,,,,,,,,,,,TestWords/RAY_PA_TI.wav,,5ff649fda2b5841ceef90ff0,2021-07-05_12h33.09.199,Agingstudy,2020.2.10,Win32,60,,,,,D,,,,,,,,,,,,,,,1,1,0.1839,0,46,46,46,1,1,OLD,OLD,,,,,,,,
,,,,,,,,,,,,,,,,TestWords/GA_MU_ZI.wav,,5ff649fda2b5841ceef90ff0,2021-07-05_12h33.09.199,Agingstudy,2020.2.10,Win32,60,,,,,D,,,,,,,,,,,,,,,1,1,0.0506,0,47,47,47,1,1,OLD,OLD,,,,,,,,
,,,,,,,,,,,,,,,,TestWords/LI_KAY_BA.wav,,5ff649fda2b5841ceef90ff0,2021-07-05_12h33.09.199,Agingstudy,2020.2.10,Win32,60,,,,,D,,,,,,,,,,,,,,,1,0,0.4343,0,48,48,48,1,2,NEW,SIMILAR,,,,,,,,
,,,,,,,,,,,,,,,,TestWords/KO_SU_FAI.wav,,5ff649fda2b5841ceef90ff0,2021-07-05_12h33.09.199,Agingstudy,2020.2.10,Win32,60,,,,,D,,,,,,,,,,,,,,,1,1,2.1551,0,49,49,49,1,1,OLD,OLD,,,,,,,,
,,,,,,,,,,,,,,,,TestWords/DAI_RU_CHI.wav,,5ff649fda2b5841ceef90ff0,2021-07-05_12h33.09.199,Agingstudy,2020.2.10,Win32,60,,,,,D,,,,,,,,,,,,,,,1,1,0.6926,0,50,50,50,1,1,OLD,OLD,,,,,,,,
,,,,,,,,,,,,,,,,TestWords/DAY_PU_MO.wav,,5ff649fda2b5841ceef90ff0,2021-07-05_12h33.09.199,Agingstudy,2020.2.10,Win32,60,,,,,D,,,,,,,,,,,,,,,1,0,0.6015,0,51,51,51,1,2,NEW,NEW,,,,,,,,
,,,,,,,,,,,,,,,,TestWords/KAI_LAY_TA.wav,,5ff649fda2b5841ceef90ff0,2021-07-05_12h33.09.199,Agingstudy,2020.2.10,Win32,60,,,,,D,,,,,,,,,,,,,,,1,1,0.2971,0,52,52,52,1,1,OLD,OLD,,,,,,,,
,,,,,,,,,,,,,,,,TestWords/LU_HAI_BO.wav,,5ff649fda2b5841ceef90ff0,2021-07-05_12h33.09.199,Agingstudy,2020.2.10,Win32,60,,,,,D,,,,,,,,,,,,,,,2,1,0.6574,0,53,53,53,1,2,NEW,NEW,,,,,,,,
,,,,,,,,,,,,,,,,TestWords/RAY_PA_TI.wav,,5ff649fda2b5841ceef90ff0,2021-07-05_12h33.09.199,Agingstudy,2020.2.10,Win32,60,,,,,D,,,,,,,,,,,,,,,1,1,1.1344,0,54,54,54,1,1,OLD,OLD,,,,,,,,
,,,,,,,,,,,,,,,,TestWords/GA_MU_ZI.wav,,5ff649fda2b5841ceef90ff0,2021-07-05_12h33.09.199,Agingstudy,2020.2.10,Win32,60,,,,,D,,,,,,,,,,,,,,,1,1,0.0792,0,55,55,55,1,1,OLD,OLD,,,,,,,,
,,,,,,,,,,,,,,,,TestWords/KO_SU_FAI.wav,,5ff649fda2b5841ceef90ff0,2021-07-05_12h33.09.199,Agingstudy,2020.2.10,Win32,60,,,,,D,,,,,,,,,,,,,,,2,0,0.7904,0,56,56,56,1,1,OLD,OLD,,,,,,,,
,,,,,,,,,,,,,,,,TestWords/TAI_SA_GI.wav,,5ff649fda2b5841ceef90ff0,2021-07-05_12h33.09.199,Agingstudy,2020.2.10,Win32,60,,,,,D,,,,,,,,,,,,,,,1,0,1.4508,0,57,57,57,1,2,NEW,NEW,,,,,,,,
,,,,,,,,,,,,,,,,TestWords/DAY_MO_PU.wav,,5ff649fda2b5841ceef90ff0,2021-07-05_12h33.09.199,Agingstudy,2020.2.10,Win32,60,,,,,D,,,,,,,,,,,,,,,2,1,1.3978,0,58,58,58,1,2,NEW,SIMILAR,,,,,,,,
,,,,,,,,,,,,,,,,TestWords/DAI_RU_CHI.wav,,5ff649fda2b5841ceef90ff0,2021-07-05_12h33.09.199,Agingstudy,2020.2.10,Win32,60,,,,,D,,,,,,,,,,,,,,,2,0,0.7197,0,59,59,59,1,1,OLD,OLD,,,,,,,,
,,,,,,,,,,,,,,,,TestWords/KAI_LAY_TA.wav,,5ff649fda2b5841ceef90ff0,2021-07-05_12h33.09.199,Agingstudy,2020.2.10,Win32,60,,,,,D,,,,,,,,,,,,,,,2,0,1.4164,0,60,60,60,1,1,OLD,OLD,,,,,,,,
,,,,,,,,,,,,,,,,TestWords/LA_ZAY_CHAI.wav,,5ff649fda2b5841ceef90ff0,2021-07-05_12h33.09.199,Agingstudy,2020.2.10,Win32,60,,,,,D,,,,,,,,,,,,,,,2,1,2.4668,0,61,61,61,1,2,NEW,NEW,,,,,,,,
,,,,,,,,,,,,,,,,TestWords/RAY_PA_TI.wav,,5ff649fda2b5841ceef90ff0,2021-07-05_12h33.09.199,Agingstudy,2020.2.10,Win32,60,,,,,D,,,,,,,,,,,,,,,1,1,0.0847,0,62,62,62,1,1,OLD,OLD,,,,,,,,
,,,,,,,,,,,,,,,,TestWords/KO_SU_FAI.wav,,5ff649fda2b5841ceef90ff0,2021-07-05_12h33.09.199,Agingstudy,2020.2.10,Win32,60,,,,,D,,,,,,,,,,,,,,,1,1,0.4677,0,63,63,63,1,1,OLD,OLD,,,,,,,,
,,,,,,,,,,,,,,,,TestWords/GA_MU_ZI.wav,,5ff649fda2b5841ceef90ff0,2021-07-05_12h33.09.199,Agingstudy,2020.2.10,Win32,60,,,,,D,,,,,,,,,,,,,,,1,1,0.5535,0,64,64,64,1,1,OLD,OLD,,,,,,,,
,,,,,,,,,,,,,,,,TestWords/GI_TAI_SA.wav,,5ff649fda2b5841ceef90ff0,2021-07-05_12h33.09.199,Agingstudy,2020.2.10,Win32,60,,,,,D,,,,,,,,,,,,,,,2,1,0.4467,0,65,65,65,1,2,NEW,SIMILAR,,,,,,,,
,,,,,,,,,,,,,,,,TestWords/MO_DAY_PU.wav,,5ff649fda2b5841ceef90ff0,2021-07-05_12h33.09.199,Agingstudy,2020.2.10,Win32,60,,,,,D,,,,,,,,,,,,,,,2,1,0.2391,0,66,66,66,1,2,NEW,SIMILAR,,,,,,,,
,,,,,,,,,,,,,,,,TestWords/KAI_LAY_TA.wav,,5ff649fda2b5841ceef90ff0,2021-07-05_12h33.09.199,Agingstudy,2020.2.10,Win32,60,,,,,D,,,,,,,,,,,,,,,1,1,0.1176,0,67,67,67,1,1,OLD,OLD,,,,,,,,
,,,,,,,,,,,,,,,,TestWords/KO_SU_FAI.wav,,5ff649fda2b5841ceef90ff0,2021-07-05_12h33.09.199,Agingstudy,2020.2.10,Win32,60,,,,,D,,,,,,,,,,,,,,,1,1,0.7392,0,68,68,68,1,1,OLD,OLD,,,,,,,,
,,,,,,,,,,,,,,,,TestWords/RAY_PA_TI.wav,,5ff649fda2b5841ceef90ff0,2021-07-05_12h33.09.199,Agingstudy,2020.2.10,Win32,60,,,,,D,,,,,,,,,,,,,,,1,1,1.0505,0,69,69,69,1,1,OLD,OLD,,,,,,,,
,,,,,,,,,,,,,,,,TestWords/NU_CHAY_SO.wav,,5ff649fda2b5841ceef90ff0,2021-07-05_12h33.09.199,Agingstudy,2020.2.10,Win32,60,,,,,D,,,,,,,,,,,,,,,2,1,0.9763,0,70,70,70,1,2,NEW,NEW,,,,,,,,
,,,,,,,,,,,,,,,,TestWords/GA_MU_ZI.wav,,5ff649fda2b5841ceef90ff0,2021-07-05_12h33.09.199,Agingstudy,2020.2.10,Win32,60,,,,,D,,,,,,,,,,,,,,,2,0,0.5672,0,71,71,71,1,1,OLD,OLD,,,,,,,,
,,,,,,,,,,,,,,,,TestWords/DAI_RU_CHI.wav,,5ff649fda2b5841ceef90ff0,2021-07-05_12h33.09.199,Agingstudy,2020.2.10,Win32,60,,,,,D,,,,,,,,,,,,,,,1,1,0.9936,0,72,72,72,1,1,OLD,OLD,,,,,,,,
,,,,,,,,,,,,,,,,TestWords/SA_TAI_GI.wav,,5ff649fda2b5841ceef90ff0,2021-07-05_12h33.09.199,Agingstudy,2020.2.10,Win32,60,,,,,D,,,,,,,,,,,,,,,2,1,0.2404,0,73,73,73,1,2,NEW,SIMILAR,,,,,,,,
,,,,,,,,,,,,,,,,TestWords/PU_DAY_MO.wav,,5ff649fda2b5841ceef90ff0,2021-07-05_12h33.09.199,Agingstudy,2020.2.10,Win32,60,,,,,D,,,,,,,,,,,,,,,1,0,0.8439,0,74,74,74,1,2,NEW,SIMILAR,,,,,,,,
,,,,,,,,,,,,,,,,TestWords/KO_SU_FAI.wav,,5ff649fda2b5841ceef90ff0,2021-07-05_12h33.09.199,Agingstudy,2020.2.10,Win32,60,,,,,D,,,,,,,,,,,,,,,1,1,0.2781,0,75,75,75,1,1,OLD,OLD,,,,,,,,
,,,,,,,,,,,,,,,,TestWords/KAI_LAY_TA.wav,,5ff649fda2b5841ceef90ff0,2021-07-05_12h33.09.199,Agingstudy,2020.2.10,Win32,60,,,,,D,,,,,,,,,,,,,,,1,1,0.639,0,76,76,76,1,1,OLD,OLD,,,,,,,,
,,,,,,,,,,,,,,,,TestWords/HA_SI_JAI.wav,,5ff649fda2b5841ceef90ff0,2021-07-05_12h33.09.199,Agingstudy,2020.2.10,Win32,60,,,,,D,,,,,,,,,,,,,,,2,1,1.5519,0,77,77,77,1,2,NEW,NEW,,,,,,,,
,,,,,,,,,,,,,,,,TestWords/RAY_PA_TI.wav,,5ff649fda2b5841ceef90ff0,2021-07-05_12h33.09.199,Agingstudy,2020.2.10,Win32,60,,,,,D,,,,,,,,,,,,,,,1,1,0.6069,0,78,78,78,1,1,OLD,OLD,,,,,,,,
,,,,,,,,,,,,,,,,TestWords/DAI_RU_CHI.wav,,5ff649fda2b5841ceef90ff0,2021-07-05_12h33.09.199,Agingstudy,2020.2.10,Win32,60,,,,,D,,,,,,,,,,,,,,,2,0,5.8664,0,79,79,79,1,1,OLD,OLD,,,,,,,,
,,,,,,,,,,,,,,,,TestWords/GA_MU_ZI.wav,,5ff649fda2b5841ceef90ff0,2021-07-05_12h33.09.199,Agingstudy,2020.2.10,Win32,60,,,,,D,,,,,,,,,,,,,,,1,1,0.1998,0,80,80,80,1,1,OLD,OLD,,,,,,,,
,,,,,,,,,,,,,,,,TestWords/SA_GI_TAI.wav,,5ff649fda2b5841ceef90ff0,2021-07-05_12h33.09.199,Agingstudy,2020.2.10,Win32,60,,,,,D,,,,,,,,,,,,,,,2,1,1.1685,0,81,81,81,1,2,NEW,SIMILAR,,,,,,,,
,,,,,,,,,,,,,,,,TestWords/KO_SU_FAI.wav,,5ff649fda2b5841ceef90ff0,2021-07-05_12h33.09.199,Agingstudy,2020.2.10,Win32,60,,,,,D,,,,,,,,,,,,,,,1,1,0.3141,0,82,82,82,1,1,OLD,OLD,,,,,,,,
,,,,,,,,,,,,,,,,TestWords/KAI_LAY_TA.wav,,5ff649fda2b5841ceef90ff0,2021-07-05_12h33.09.199,Agingstudy,2020.2.10,Win32,60,,,,,D,,,,,,,,,,,,,,,1,1,0.1933,0,83,83,83,1,1,OLD,OLD,,,,,,,,
,,,,,,,,,,,,,,,,TestWords/PU_MO_DAY.wav,,5ff649fda2b5841ceef90ff0,2021-07-05_12h33.09.199,Agingstudy,2020.2.10,Win32,60,,,,,D,,,,,,,,,,,,,,,1,0,0.3838,0,84,84,84,1,2,NEW,SIMILAR,,,,,,,,
,,,,,,,,,,,,,,,,TestWords/RAY_PA_TI.wav,,5ff649fda2b5841ceef90ff0,2021-07-05_12h33.09.199,Agingstudy,2020.2.10,Win32,60,,,,,D,,,,,,,,,,,,,,,1,1,0.0006,0,85,85,85,1,1,OLD,OLD,,,,,,,,
,,,,,,,,,,,,,,,,TestWords/HI_NAY_VA.wav,,5ff649fda2b5841ceef90ff0,2021-07-05_12h33.09.199,Agingstudy,2020.2.10,Win32,60,,,,,D,,,,,,,,,,,,,,,2,1,0.2506,0,86,86,86,1,2,NEW,NEW,,,,,,,,
,,,,,,,,,,,,,,,,TestWords/DAI_RU_CHI.wav,,5ff649fda2b5841ceef90ff0,2021-07-05_12h33.09.199,Agingstudy,2020.2.10,Win32,60,,,,,D,,,,,,,,,,,,,,,1,1,3.2524,0,87,87,87,1,1,OLD,OLD,,,,,,,,
,,,,,,,,,,,,,,,,TestWords/TAI_GI_SA.wav,,5ff649fda2b5841ceef90ff0,2021-07-05_12h33.09.199,Agingstudy,2020.2.10,Win32,60,,,,,D,,,,,,,,,,,,,,,1,0,0.4909,0,88,88,88,1,2,NEW,SIMILAR,,,,,,,,
,,,,,,,,,,,,,,,,TestWords/KO_SU_FAI.wav,,5ff649fda2b5841ceef90ff0,2021-07-05_12h33.09.199,Agingstudy,2020.2.10,Win32,60,,,,,D,,,,,,,,,,,,,,,1,1,1.1365,0,89,89,89,1,1,OLD,OLD,,,,,,,,
,,,,,,,,,,,,,,,,TestWords/GA_MU_ZI.wav,,5ff649fda2b5841ceef90ff0,2021-07-05_12h33.09.199,Agingstudy,2020.2.10,Win32,60,,,,,D,,,,,,,,,,,,,,,1,1,0.1756,0,90,90,90,1,1,OLD,OLD,,,,,,,,
,,,,,,,,,,,,,,,,TestWords/PAI_LU_WA.wav,,5ff649fda2b5841ceef90ff0,2021-07-05_12h33.09.199,Agingstudy,2020.2.10,Win32,60,,,,,D,,,,,,,,,,,,,,,2,1,0.1081,0,91,91,91,1,2,NEW,NEW,,,,,,,,
,,,,,,,,,,,,,,,,TestWords/KAI_LAY_TA.wav,,5ff649fda2b5841ceef90ff0,2021-07-05_12h33.09.199,Agingstudy,2020.2.10,Win32,60,,,,,D,,,,,,,,,,,,,,,1,1,0.344,0,92,92,92,1,1,OLD,OLD,,,,,,,,
,,,,,,,,,,,,,,,,TestWords/MO_PU_DAY.wav,,5ff649fda2b5841ceef90ff0,2021-07-05_12h33.09.199,Agingstudy,2020.2.10,Win32,60,,,,,D,,,,,,,,,,,,,,,2,1,0.1682,0,93,93,93,1,2,NEW,SIMILAR,,,,,,,,
,,,,,,,,,,,,,,,,TestWords/KO_SU_FAI.wav,,5ff649fda2b5841ceef90ff0,2021-07-05_12h33.09.199,Agingstudy,2020.2.10,Win32,60,,,,,D,,,,,,,,,,,,,,,1,1,0.2422,0,94,94,94,1,1,OLD,OLD,,,,,,,,
,,,,,,,,,,,,,,,,TestWords/GI_SA_TAI.wav,,5ff649fda2b5841ceef90ff0,2021-07-05_12h33.09.199,Agingstudy,2020.2.10,Win32,60,,,,,D,,,,,,,,,,,,,,,2,1,0.3285,0,95,95,95,1,2,NEW,SIMILAR,,,,,,,,
,,,,,,,,,,,,,,,,TestWords/HO_NAY_VA.wav,,5ff649fda2b5841ceef90ff0,2021-07-05_12h33.09.199,Agingstudy,2020.2.10,Win32,60,,,,,D,,,,,,,,,,,,,,,2,1,0.9946,0,96,96,96,1,2,NEW,NEW,,,,,,,,
,,,,,,,,,,,,,,,,TestWords/GU_CHAI_PI.wav,,5ff649fda2b5841ceef90ff0,2021-07-05_12h33.09.199,Agingstudy,2020.2.10,Win32,60,,,,,D,,,,,,,,,,,,,,,2,1,0.4844,0,97,97,97,1,2,NEW,NEW,,,,,,,,
,,,,,,,,,,,,,,,,TestWords/KO_SU_FAI.wav,,5ff649fda2b5841ceef90ff0,2021-07-05_12h33.09.199,Agingstudy,2020.2.10,Win32,60,,,,,D,,,,,,,,,,,,,,,1,1,0.2378,0,98,98,98,1,1,OLD,OLD,,,,,,,,
,,,,,,,,,,,,,,,,TestWords/WAI_RO_JU.wav,,5ff649fda2b5841ceef90ff0,2021-07-05_12h33.09.199,Agingstudy,2020.2.10,Win32,60,,,,,D,,,,,,,,,,,,,,,2,1,0.5233,0,99,99,99,1,2,NEW,NEW,,,,,,,,
,,,,,,,,,,,,,,,,,,5ff649fda2b5841ceef90ff0,2021-07-05_12h33.09.199,Agingstudy,2020.2.10,Win32,60,,,,,,,,,,,,,,,,,,,,,,,,,,,,,,,0,0,0,0,1,,,
,,,,,,,,,,,,,,,,,,5ff649fda2b5841ceef90ff0,2021-07-05_12h33.09.199,Agingstudy,2020.2.10,Win32,60,,,,,,,,,,,,,,,,,,,,,,,,,,,,,,,,,,,,return,24.3354,There was no technical difficulty and all instructions were clear. 
