Welcome0Continue.keys,Welcome0Continue.rt,SoundCheckBegin.keys,SoundCheckBegin.rt,SoundCheckEndKey.keys,SoundCheckEndKey.rt,HeadphoneContinueKey.keys,HeadphoneContinueKey.rt,CheckResp.keys,CheckResp.corr,CheckResp.rt,HeadphoneLoop.thisRepN,HeadphoneLoop.thisTrialN,HeadphoneLoop.thisN,HeadphoneLoop.thisIndex,HeadphoneLoop.ran,File,Correct,participant,date,expName,psychopyVersion,OS,frameRate,STUDY_ID,SESSION_ID,ContinueKey8.keys,ContinueKey8.rt,MSTWelcomeContKey.keys,MSTWelcomeContKey.rt,Condition,MSTTrainIntroKey.keys,MSTTrainIntroKey.rt,MSTTrainKeys.keys,MSTTrainKeys.corr,MSTTrainKeys.rt,MSTTrainLoop.thisRepN,MSTTrainLoop.thisTrialN,MSTTrainLoop.thisN,MSTTrainLoop.thisIndex,MSTTrainLoop.ran,SoundFile,Type,MSTTestBeginKey.keys,MSTTestBeginKey.rt,MST_resp.keys,MST_resp.corr,MST_resp.rt,MSTPlayLoop.thisRepN,MSTPlayLoop.thisTrialN,MSTPlayLoop.thisN,MSTPlayLoop.thisIndex,MSTPlayLoop.ran,WordCorrect,Correct_type,WordType,MSTLoop.thisRepN,MSTLoop.thisTrialN,MSTLoop.thisN,MSTLoop.thisIndex,MSTLoop.ran,EndAllKey.keys,EndAllKey.rt,FeedbackResp.text
space,10.376,space,3.579,space,4.351,space,4.382,3,1,0.273,0,0,0,4,1,Headphone/t3_1.wav,3,602fa684fc65e0cb663c1970,2021-07-09_17h09.42.143,Agingstudy_mst,2020.2.10,Win32,60,60e8550594adb1982c6cb1b5,60e866a7d1b26f743cf5e615,,,,,,,,,,,,,,,,,,,,,,,,,,,,,,,,,,,,,,
,,,,,,,,1,1,0.372,0,1,1,0,1,Headphone/t1_1.wav,1,602fa684fc65e0cb663c1970,2021-07-09_17h09.42.143,Agingstudy_mst,2020.2.10,Win32,60,60e8550594adb1982c6cb1b5,60e866a7d1b26f743cf5e615,,,,,,,,,,,,,,,,,,,,,,,,,,,,,,,,,,,,,,
,,,,,,,,2,1,0.236,0,2,2,2,1,Headphone/t2_1.wav,2,602fa684fc65e0cb663c1970,2021-07-09_17h09.42.143,Agingstudy_mst,2020.2.10,Win32,60,60e8550594adb1982c6cb1b5,60e866a7d1b26f743cf5e615,,,,,,,,,,,,,,,,,,,,,,,,,,,,,,,,,,,,,,
,,,,,,,,3,1,0.369,0,3,3,5,1,Headphone/t3_2.wav,3,602fa684fc65e0cb663c1970,2021-07-09_17h09.42.143,Agingstudy_mst,2020.2.10,Win32,60,60e8550594adb1982c6cb1b5,60e866a7d1b26f743cf5e615,,,,,,,,,,,,,,,,,,,,,,,,,,,,,,,,,,,,,,
,,,,,,,,1,1,0.325,0,4,4,1,1,Headphone/t1_2.wav,1,602fa684fc65e0cb663c1970,2021-07-09_17h09.42.143,Agingstudy_mst,2020.2.10,Win32,60,60e8550594adb1982c6cb1b5,60e866a7d1b26f743cf5e615,,,,,,,,,,,,,,,,,,,,,,,,,,,,,,,,,,,,,,
,,,,,,,,2,1,0.233,0,5,5,3,1,Headphone/t2_2.wav,2,602fa684fc65e0cb663c1970,2021-07-09_17h09.42.143,Agingstudy_mst,2020.2.10,Win32,60,60e8550594adb1982c6cb1b5,60e866a7d1b26f743cf5e615,,,,,,,,,,,,,,,,,,,,,,,,,,,,,,,,,,,,,,
,,,,,,,,,,,,,,,,,2,602fa684fc65e0cb663c1970,2021-07-09_17h09.42.143,Agingstudy_mst,2020.2.10,Win32,60,60e8550594adb1982c6cb1b5,60e866a7d1b26f743cf5e615,space,22.144,space,7.454,1,space,7.348,2,1,5.795,0,0,0,0,1,Training/FO_YI_LAY.wav,NEW,,,,,,,,,,,,,,,,,,,,,
,,,,,,,,,,,,,,,,,1,602fa684fc65e0cb663c1970,2021-07-09_17h09.42.143,Agingstudy_mst,2020.2.10,Win32,60,60e8550594adb1982c6cb1b5,60e866a7d1b26f743cf5e615,,,,,,,,1,1,1.595,0,1,1,1,1,Training/FO_YI_LAY.wav,OLD,,,,,,,,,,,,,,,,,,,,,
,,,,,,,,,,,,,,,,,2,602fa684fc65e0cb663c1970,2021-07-09_17h09.42.143,Agingstudy_mst,2020.2.10,Win32,60,60e8550594adb1982c6cb1b5,60e866a7d1b26f743cf5e615,,,,,,,,2,1,1.218,0,2,2,2,1,Training/YO_BU_JAY.wav,NEW,,,,,,,,,,,,,,,,,,,,,
,,,,,,,,,,,,,,,,,2,602fa684fc65e0cb663c1970,2021-07-09_17h09.42.143,Agingstudy_mst,2020.2.10,Win32,60,60e8550594adb1982c6cb1b5,60e866a7d1b26f743cf5e615,,,,,,,,2,1,1.398,0,3,3,3,1,Training/JAY_YO_BU.wav,SIMILAR,,,,,,,,,,,,,,,,,,,,,
,,,,,,,,,,,,,,,,,1,602fa684fc65e0cb663c1970,2021-07-09_17h09.42.143,Agingstudy_mst,2020.2.10,Win32,60,60e8550594adb1982c6cb1b5,60e866a7d1b26f743cf5e615,,,,,,,,1,1,1.073,0,4,4,4,1,Training/FO_YI_LAY.wav,OLD,,,,,,,,,,,,,,,,,,,,,
,,,,,,,,,,,,,,,,TestWords/LU_HAI_BO.wav,,602fa684fc65e0cb663c1970,2021-07-09_17h09.42.143,Agingstudy_mst,2020.2.10,Win32,60,60e8550594adb1982c6cb1b5,60e866a7d1b26f743cf5e615,,,,,B,,,,,,,,,,,,,space,4.911,2,1,2.012,0,0,0,0,1,2,NEW,NEW,,,,,,,,
,,,,,,,,,,,,,,,,TestWords/CHU_LA_PAY.wav,,602fa684fc65e0cb663c1970,2021-07-09_17h09.42.143,Agingstudy_mst,2020.2.10,Win32,60,60e8550594adb1982c6cb1b5,60e866a7d1b26f743cf5e615,,,,,B,,,,,,,,,,,,,,,2,1,1.209,0,1,1,1,1,2,NEW,NEW,,,,,,,,
,,,,,,,,,,,,,,,,TestWords/RAY_PA_TI.wav,,602fa684fc65e0cb663c1970,2021-07-09_17h09.42.143,Agingstudy_mst,2020.2.10,Win32,60,60e8550594adb1982c6cb1b5,60e866a7d1b26f743cf5e615,,,,,B,,,,,,,,,,,,,,,2,1,0.587,0,2,2,2,1,2,NEW,NEW,,,,,,,,
,,,,,,,,,,,,,,,,TestWords/DA_CHU_VAI.wav,,602fa684fc65e0cb663c1970,2021-07-09_17h09.42.143,Agingstudy_mst,2020.2.10,Win32,60,60e8550594adb1982c6cb1b5,60e866a7d1b26f743cf5e615,,,,,B,,,,,,,,,,,,,,,2,1,0.472,0,3,3,3,1,2,NEW,NEW,,,,,,,,
,,,,,,,,,,,,,,,,TestWords/DAY_PU_MO.wav,,602fa684fc65e0cb663c1970,2021-07-09_17h09.42.143,Agingstudy_mst,2020.2.10,Win32,60,60e8550594adb1982c6cb1b5,60e866a7d1b26f743cf5e615,,,,,B,,,,,,,,,,,,,,,2,1,0.514,0,4,4,4,1,2,NEW,NEW,,,,,,,,
,,,,,,,,,,,,,,,,TestWords/DAI_RU_CHI.wav,,602fa684fc65e0cb663c1970,2021-07-09_17h09.42.143,Agingstudy_mst,2020.2.10,Win32,60,60e8550594adb1982c6cb1b5,60e866a7d1b26f743cf5e615,,,,,B,,,,,,,,,,,,,,,1,0,0.92,0,5,5,5,1,2,NEW,NEW,,,,,,,,
,,,,,,,,,,,,,,,,TestWords/RAI_ZO_FU.wav,,602fa684fc65e0cb663c1970,2021-07-09_17h09.42.143,Agingstudy_mst,2020.2.10,Win32,60,60e8550594adb1982c6cb1b5,60e866a7d1b26f743cf5e615,,,,,B,,,,,,,,,,,,,,,2,1,0.291,0,6,6,6,1,2,NEW,NEW,,,,,,,,
,,,,,,,,,,,,,,,,TestWords/HO_NAY_VA.wav,,602fa684fc65e0cb663c1970,2021-07-09_17h09.42.143,Agingstudy_mst,2020.2.10,Win32,60,60e8550594adb1982c6cb1b5,60e866a7d1b26f743cf5e615,,,,,B,,,,,,,,,,,,,,,2,1,0.192,0,7,7,7,1,2,NEW,NEW,,,,,,,,
,,,,,,,,,,,,,,,,TestWords/RAY_PA_TI.wav,,602fa684fc65e0cb663c1970,2021-07-09_17h09.42.143,Agingstudy_mst,2020.2.10,Win32,60,60e8550594adb1982c6cb1b5,60e866a7d1b26f743cf5e615,,,,,B,,,,,,,,,,,,,,,1,1,0.982,0,8,8,8,1,1,OLD,OLD,,,,,,,,
,,,,,,,,,,,,,,,,TestWords/DAY_MO_PU.wav,,602fa684fc65e0cb663c1970,2021-07-09_17h09.42.143,Agingstudy_mst,2020.2.10,Win32,60,60e8550594adb1982c6cb1b5,60e866a7d1b26f743cf5e615,,,,,B,,,,,,,,,,,,,,,2,1,0.885,0,9,9,9,1,2,NEW,SIMILAR,,,,,,,,
,,,,,,,,,,,,,,,,TestWords/TAI_SA_GI.wav,,602fa684fc65e0cb663c1970,2021-07-09_17h09.42.143,Agingstudy_mst,2020.2.10,Win32,60,60e8550594adb1982c6cb1b5,60e866a7d1b26f743cf5e615,,,,,B,,,,,,,,,,,,,,,2,1,0.944,0,10,10,10,1,2,NEW,NEW,,,,,,,,
,,,,,,,,,,,,,,,,TestWords/DAI_RU_CHI.wav,,602fa684fc65e0cb663c1970,2021-07-09_17h09.42.143,Agingstudy_mst,2020.2.10,Win32,60,60e8550594adb1982c6cb1b5,60e866a7d1b26f743cf5e615,,,,,B,,,,,,,,,,,,,,,2,0,1.1,0,11,11,11,1,1,OLD,OLD,,,,,,,,
,,,,,,,,,,,,,,,,TestWords/GA_MU_ZI.wav,,602fa684fc65e0cb663c1970,2021-07-09_17h09.42.143,Agingstudy_mst,2020.2.10,Win32,60,60e8550594adb1982c6cb1b5,60e866a7d1b26f743cf5e615,,,,,B,,,,,,,,,,,,,,,2,1,0.711,0,12,12,12,1,2,NEW,NEW,,,,,,,,
,,,,,,,,,,,,,,,,TestWords/ZO_RAI_FU.wav,,602fa684fc65e0cb663c1970,2021-07-09_17h09.42.143,Agingstudy_mst,2020.2.10,Win32,60,60e8550594adb1982c6cb1b5,60e866a7d1b26f743cf5e615,,,,,B,,,,,,,,,,,,,,,2,1,0.329,0,13,13,13,1,2,NEW,SIMILAR,,,,,,,,
,,,,,,,,,,,,,,,,TestWords/RAY_PA_TI.wav,,602fa684fc65e0cb663c1970,2021-07-09_17h09.42.143,Agingstudy_mst,2020.2.10,Win32,60,60e8550594adb1982c6cb1b5,60e866a7d1b26f743cf5e615,,,,,B,,,,,,,,,,,,,,,1,1,0.547,0,14,14,14,1,1,OLD,OLD,,,,,,,,
,,,,,,,,,,,,,,,,TestWords/FI_GU_CHA.wav,,602fa684fc65e0cb663c1970,2021-07-09_17h09.42.143,Agingstudy_mst,2020.2.10,Win32,60,60e8550594adb1982c6cb1b5,60e866a7d1b26f743cf5e615,,,,,B,,,,,,,,,,,,,,,2,1,0.199,0,15,15,15,1,2,NEW,NEW,,,,,,,,
,,,,,,,,,,,,,,,,TestWords/MO_DAY_PU.wav,,602fa684fc65e0cb663c1970,2021-07-09_17h09.42.143,Agingstudy_mst,2020.2.10,Win32,60,60e8550594adb1982c6cb1b5,60e866a7d1b26f743cf5e615,,,,,B,,,,,,,,,,,,,,,2,1,0.931,0,16,16,16,1,2,NEW,SIMILAR,,,,,,,,
,,,,,,,,,,,,,,,,TestWords/GI_SA_TAI.wav,,602fa684fc65e0cb663c1970,2021-07-09_17h09.42.143,Agingstudy_mst,2020.2.10,Win32,60,60e8550594adb1982c6cb1b5,60e866a7d1b26f743cf5e615,,,,,B,,,,,,,,,,,,,,,2,1,1.183,0,17,17,17,1,2,NEW,SIMILAR,,,,,,,,
,,,,,,,,,,,,,,,,TestWords/FU_RAI_ZO.wav,,602fa684fc65e0cb663c1970,2021-07-09_17h09.42.143,Agingstudy_mst,2020.2.10,Win32,60,60e8550594adb1982c6cb1b5,60e866a7d1b26f743cf5e615,,,,,B,,,,,,,,,,,,,,,1,0,1.096,0,18,18,18,1,2,NEW,SIMILAR,,,,,,,,
,,,,,,,,,,,,,,,,TestWords/DAI_RU_CHI.wav,,602fa684fc65e0cb663c1970,2021-07-09_17h09.42.143,Agingstudy_mst,2020.2.10,Win32,60,60e8550594adb1982c6cb1b5,60e866a7d1b26f743cf5e615,,,,,B,,,,,,,,,,,,,,,1,1,1.598,0,19,19,19,1,1,OLD,OLD,,,,,,,,
,,,,,,,,,,,,,,,,TestWords/KO_SU_FAI.wav,,602fa684fc65e0cb663c1970,2021-07-09_17h09.42.143,Agingstudy_mst,2020.2.10,Win32,60,60e8550594adb1982c6cb1b5,60e866a7d1b26f743cf5e615,,,,,B,,,,,,,,,,,,,,,2,1,0.417,0,20,20,20,1,2,NEW,NEW,,,,,,,,
,,,,,,,,,,,,,,,,TestWords/GA_MU_ZI.wav,,602fa684fc65e0cb663c1970,2021-07-09_17h09.42.143,Agingstudy_mst,2020.2.10,Win32,60,60e8550594adb1982c6cb1b5,60e866a7d1b26f743cf5e615,,,,,B,,,,,,,,,,,,,,,2,0,1.04,0,21,21,21,1,1,OLD,OLD,,,,,,,,
,,,,,,,,,,,,,,,,TestWords/RAY_PA_TI.wav,,602fa684fc65e0cb663c1970,2021-07-09_17h09.42.143,Agingstudy_mst,2020.2.10,Win32,60,60e8550594adb1982c6cb1b5,60e866a7d1b26f743cf5e615,,,,,B,,,,,,,,,,,,,,,1,1,1.146,0,22,22,22,1,1,OLD,OLD,,,,,,,,
,,,,,,,,,,,,,,,,TestWords/PU_DAY_MO.wav,,602fa684fc65e0cb663c1970,2021-07-09_17h09.42.143,Agingstudy_mst,2020.2.10,Win32,60,60e8550594adb1982c6cb1b5,60e866a7d1b26f743cf5e615,,,,,B,,,,,,,,,,,,,,,2,1,1.871,0,23,23,23,1,2,NEW,SIMILAR,,,,,,,,
,,,,,,,,,,,,,,,,TestWords/GI_TAI_SA.wav,,602fa684fc65e0cb663c1970,2021-07-09_17h09.42.143,Agingstudy_mst,2020.2.10,Win32,60,60e8550594adb1982c6cb1b5,60e866a7d1b26f743cf5e615,,,,,B,,,,,,,,,,,,,,,2,1,1.586,0,24,24,24,1,2,NEW,SIMILAR,,,,,,,,
,,,,,,,,,,,,,,,,TestWords/KO_SU_FAI.wav,,602fa684fc65e0cb663c1970,2021-07-09_17h09.42.143,Agingstudy_mst,2020.2.10,Win32,60,60e8550594adb1982c6cb1b5,60e866a7d1b26f743cf5e615,,,,,B,,,,,,,,,,,,,,,1,1,0.758,0,25,25,25,1,1,OLD,OLD,,,,,,,,
,,,,,,,,,,,,,,,,TestWords/FU_ZO_RAI.wav,,602fa684fc65e0cb663c1970,2021-07-09_17h09.42.143,Agingstudy_mst,2020.2.10,Win32,60,60e8550594adb1982c6cb1b5,60e866a7d1b26f743cf5e615,,,,,B,,,,,,,,,,,,,,,2,1,1.724,0,26,26,26,1,2,NEW,SIMILAR,,,,,,,,
,,,,,,,,,,,,,,,,TestWords/DAI_RU_CHI.wav,,602fa684fc65e0cb663c1970,2021-07-09_17h09.42.143,Agingstudy_mst,2020.2.10,Win32,60,60e8550594adb1982c6cb1b5,60e866a7d1b26f743cf5e615,,,,,B,,,,,,,,,,,,,,,1,1,0.789,0,27,27,27,1,1,OLD,OLD,,,,,,,,
,,,,,,,,,,,,,,,,TestWords/RAY_PA_TI.wav,,602fa684fc65e0cb663c1970,2021-07-09_17h09.42.143,Agingstudy_mst,2020.2.10,Win32,60,60e8550594adb1982c6cb1b5,60e866a7d1b26f743cf5e615,,,,,B,,,,,,,,,,,,,,,1,1,1.545,0,28,28,28,1,1,OLD,OLD,,,,,,,,
,,,,,,,,,,,,,,,,TestWords/GA_MU_ZI.wav,,602fa684fc65e0cb663c1970,2021-07-09_17h09.42.143,Agingstudy_mst,2020.2.10,Win32,60,60e8550594adb1982c6cb1b5,60e866a7d1b26f743cf5e615,,,,,B,,,,,,,,,,,,,,,1,1,0.909,0,29,29,29,1,1,OLD,OLD,,,,,,,,
,,,,,,,,,,,,,,,,TestWords/WAI_VU_NA.wav,,602fa684fc65e0cb663c1970,2021-07-09_17h09.42.143,Agingstudy_mst,2020.2.10,Win32,60,60e8550594adb1982c6cb1b5,60e866a7d1b26f743cf5e615,,,,,B,,,,,,,,,,,,,,,2,1,0.19,0,30,30,30,1,2,NEW,NEW,,,,,,,,
,,,,,,,,,,,,,,,,TestWords/SA_TAI_GI.wav,,602fa684fc65e0cb663c1970,2021-07-09_17h09.42.143,Agingstudy_mst,2020.2.10,Win32,60,60e8550594adb1982c6cb1b5,60e866a7d1b26f743cf5e615,,,,,B,,,,,,,,,,,,,,,2,1,0.839,0,31,31,31,1,2,NEW,SIMILAR,,,,,,,,
,,,,,,,,,,,,,,,,TestWords/PU_MO_DAY.wav,,602fa684fc65e0cb663c1970,2021-07-09_17h09.42.143,Agingstudy_mst,2020.2.10,Win32,60,60e8550594adb1982c6cb1b5,60e866a7d1b26f743cf5e615,,,,,B,,,,,,,,,,,,,,,2,1,1.151,0,32,32,32,1,2,NEW,SIMILAR,,,,,,,,
,,,,,,,,,,,,,,,,TestWords/KO_SU_FAI.wav,,602fa684fc65e0cb663c1970,2021-07-09_17h09.42.143,Agingstudy_mst,2020.2.10,Win32,60,60e8550594adb1982c6cb1b5,60e866a7d1b26f743cf5e615,,,,,B,,,,,,,,,,,,,,,1,1,0.795,0,33,33,33,1,1,OLD,OLD,,,,,,,,
,,,,,,,,,,,,,,,,TestWords/RAI_FU_ZO.wav,,602fa684fc65e0cb663c1970,2021-07-09_17h09.42.143,Agingstudy_mst,2020.2.10,Win32,60,60e8550594adb1982c6cb1b5,60e866a7d1b26f743cf5e615,,,,,B,,,,,,,,,,,,,,,1,0,0.967,0,34,34,34,1,2,NEW,SIMILAR,,,,,,,,
,,,,,,,,,,,,,,,,TestWords/KAI_LAY_TA.wav,,602fa684fc65e0cb663c1970,2021-07-09_17h09.42.143,Agingstudy_mst,2020.2.10,Win32,60,60e8550594adb1982c6cb1b5,60e866a7d1b26f743cf5e615,,,,,B,,,,,,,,,,,,,,,2,1,1.125,0,35,35,35,1,2,NEW,NEW,,,,,,,,
,,,,,,,,,,,,,,,,TestWords/RAY_PA_TI.wav,,602fa684fc65e0cb663c1970,2021-07-09_17h09.42.143,Agingstudy_mst,2020.2.10,Win32,60,60e8550594adb1982c6cb1b5,60e866a7d1b26f743cf5e615,,,,,B,,,,,,,,,,,,,,,1,1,1.127,0,36,36,36,1,1,OLD,OLD,,,,,,,,
,,,,,,,,,,,,,,,,TestWords/WAI_NA_VU.wav,,602fa684fc65e0cb663c1970,2021-07-09_17h09.42.143,Agingstudy_mst,2020.2.10,Win32,60,60e8550594adb1982c6cb1b5,60e866a7d1b26f743cf5e615,,,,,B,,,,,,,,,,,,,,,1,0,1.926,0,37,37,37,1,2,NEW,SIMILAR,,,,,,,,
,,,,,,,,,,,,,,,,TestWords/GA_MU_ZI.wav,,602fa684fc65e0cb663c1970,2021-07-09_17h09.42.143,Agingstudy_mst,2020.2.10,Win32,60,60e8550594adb1982c6cb1b5,60e866a7d1b26f743cf5e615,,,,,B,,,,,,,,,,,,,,,1,1,2.64,0,38,38,38,1,1,OLD,OLD,,,,,,,,
,,,,,,,,,,,,,,,,TestWords/MO_PU_DAY.wav,,602fa684fc65e0cb663c1970,2021-07-09_17h09.42.143,Agingstudy_mst,2020.2.10,Win32,60,60e8550594adb1982c6cb1b5,60e866a7d1b26f743cf5e615,,,,,B,,,,,,,,,,,,,,,2,1,0.323,0,39,39,39,1,2,NEW,SIMILAR,,,,,,,,
,,,,,,,,,,,,,,,,TestWords/DAI_RU_CHI.wav,,602fa684fc65e0cb663c1970,2021-07-09_17h09.42.143,Agingstudy_mst,2020.2.10,Win32,60,60e8550594adb1982c6cb1b5,60e866a7d1b26f743cf5e615,,,,,B,,,,,,,,,,,,,,,1,1,0.709,0,40,40,40,1,1,OLD,OLD,,,,,,,,
,,,,,,,,,,,,,,,,TestWords/SA_GI_TAI.wav,,602fa684fc65e0cb663c1970,2021-07-09_17h09.42.143,Agingstudy_mst,2020.2.10,Win32,60,60e8550594adb1982c6cb1b5,60e866a7d1b26f743cf5e615,,,,,B,,,,,,,,,,,,,,,2,1,0.898,0,41,41,41,1,2,NEW,SIMILAR,,,,,,,,
,,,,,,,,,,,,,,,,TestWords/KO_SU_FAI.wav,,602fa684fc65e0cb663c1970,2021-07-09_17h09.42.143,Agingstudy_mst,2020.2.10,Win32,60,60e8550594adb1982c6cb1b5,60e866a7d1b26f743cf5e615,,,,,B,,,,,,,,,,,,,,,2,0,3.081,0,42,42,42,1,1,OLD,OLD,,,,,,,,
,,,,,,,,,,,,,,,,TestWords/ZO_FU_RAI.wav,,602fa684fc65e0cb663c1970,2021-07-09_17h09.42.143,Agingstudy_mst,2020.2.10,Win32,60,60e8550594adb1982c6cb1b5,60e866a7d1b26f743cf5e615,,,,,B,,,,,,,,,,,,,,,2,1,0.66,0,43,43,43,1,2,NEW,SIMILAR,,,,,,,,
,,,,,,,,,,,,,,,,TestWords/KAI_LAY_TA.wav,,602fa684fc65e0cb663c1970,2021-07-09_17h09.42.143,Agingstudy_mst,2020.2.10,Win32,60,60e8550594adb1982c6cb1b5,60e866a7d1b26f743cf5e615,,,,,B,,,,,,,,,,,,,,,2,0,3.82,0,44,44,44,1,1,OLD,OLD,,,,,,,,
,,,,,,,,,,,,,,,,TestWords/RAY_PA_TI.wav,,602fa684fc65e0cb663c1970,2021-07-09_17h09.42.143,Agingstudy_mst,2020.2.10,Win32,60,60e8550594adb1982c6cb1b5,60e866a7d1b26f743cf5e615,,,,,B,,,,,,,,,,,,,,,1,1,0.641,0,45,45,45,1,1,OLD,OLD,,,,,,,,
,,,,,,,,,,,,,,,,TestWords/DAI_RU_CHI.wav,,602fa684fc65e0cb663c1970,2021-07-09_17h09.42.143,Agingstudy_mst,2020.2.10,Win32,60,60e8550594adb1982c6cb1b5,60e866a7d1b26f743cf5e615,,,,,B,,,,,,,,,,,,,,,1,1,2.795,0,46,46,46,1,1,OLD,OLD,,,,,,,,
,,,,,,,,,,,,,,,,TestWords/VU_NA_WAI.wav,,602fa684fc65e0cb663c1970,2021-07-09_17h09.42.143,Agingstudy_mst,2020.2.10,Win32,60,60e8550594adb1982c6cb1b5,60e866a7d1b26f743cf5e615,,,,,B,,,,,,,,,,,,,,,2,1,0.747,0,47,47,47,1,2,NEW,SIMILAR,,,,,,,,
,,,,,,,,,,,,,,,,TestWords/TAI_GI_SA.wav,,602fa684fc65e0cb663c1970,2021-07-09_17h09.42.143,Agingstudy_mst,2020.2.10,Win32,60,60e8550594adb1982c6cb1b5,60e866a7d1b26f743cf5e615,,,,,B,,,,,,,,,,,,,,,2,1,0.372,0,48,48,48,1,2,NEW,SIMILAR,,,,,,,,
,,,,,,,,,,,,,,,,TestWords/GA_MU_ZI.wav,,602fa684fc65e0cb663c1970,2021-07-09_17h09.42.143,Agingstudy_mst,2020.2.10,Win32,60,60e8550594adb1982c6cb1b5,60e866a7d1b26f743cf5e615,,,,,B,,,,,,,,,,,,,,,1,1,0.81,0,49,49,49,1,1,OLD,OLD,,,,,,,,
,,,,,,,,,,,,,,,,TestWords/KO_SU_FAI.wav,,602fa684fc65e0cb663c1970,2021-07-09_17h09.42.143,Agingstudy_mst,2020.2.10,Win32,60,60e8550594adb1982c6cb1b5,60e866a7d1b26f743cf5e615,,,,,B,,,,,,,,,,,,,,,1,1,1.184,0,50,50,50,1,1,OLD,OLD,,,,,,,,
,,,,,,,,,,,,,,,,TestWords/KAI_LAY_TA.wav,,602fa684fc65e0cb663c1970,2021-07-09_17h09.42.143,Agingstudy_mst,2020.2.10,Win32,60,60e8550594adb1982c6cb1b5,60e866a7d1b26f743cf5e615,,,,,B,,,,,,,,,,,,,,,2,0,0.552,0,51,51,51,1,1,OLD,OLD,,,,,,,,
,,,,,,,,,,,,,,,,TestWords/HA_SI_JAI.wav,,602fa684fc65e0cb663c1970,2021-07-09_17h09.42.143,Agingstudy_mst,2020.2.10,Win32,60,60e8550594adb1982c6cb1b5,60e866a7d1b26f743cf5e615,,,,,B,,,,,,,,,,,,,,,2,1,1.455,0,52,52,52,1,2,NEW,NEW,,,,,,,,
,,,,,,,,,,,,,,,,TestWords/RAY_PA_TI.wav,,602fa684fc65e0cb663c1970,2021-07-09_17h09.42.143,Agingstudy_mst,2020.2.10,Win32,60,60e8550594adb1982c6cb1b5,60e866a7d1b26f743cf5e615,,,,,B,,,,,,,,,,,,,,,1,1,0.874,0,53,53,53,1,1,OLD,OLD,,,,,,,,
,,,,,,,,,,,,,,,,TestWords/VU_WAI_NA.wav,,602fa684fc65e0cb663c1970,2021-07-09_17h09.42.143,Agingstudy_mst,2020.2.10,Win32,60,60e8550594adb1982c6cb1b5,60e866a7d1b26f743cf5e615,,,,,B,,,,,,,,,,,,,,,2,1,3.002,0,54,54,54,1,2,NEW,SIMILAR,,,,,,,,
,,,,,,,,,,,,,,,,TestWords/DAI_RU_CHI.wav,,602fa684fc65e0cb663c1970,2021-07-09_17h09.42.143,Agingstudy_mst,2020.2.10,Win32,60,60e8550594adb1982c6cb1b5,60e866a7d1b26f743cf5e615,,,,,B,,,,,,,,,,,,,,,1,1,0.469,0,55,55,55,1,1,OLD,OLD,,,,,,,,
,,,,,,,,,,,,,,,,TestWords/GA_MU_ZI.wav,,602fa684fc65e0cb663c1970,2021-07-09_17h09.42.143,Agingstudy_mst,2020.2.10,Win32,60,60e8550594adb1982c6cb1b5,60e866a7d1b26f743cf5e615,,,,,B,,,,,,,,,,,,,,,1,1,0.839,0,56,56,56,1,1,OLD,OLD,,,,,,,,
,,,,,,,,,,,,,,,,TestWords/KAI_LAY_TA.wav,,602fa684fc65e0cb663c1970,2021-07-09_17h09.42.143,Agingstudy_mst,2020.2.10,Win32,60,60e8550594adb1982c6cb1b5,60e866a7d1b26f743cf5e615,,,,,B,,,,,,,,,,,,,,,1,1,1.182,0,57,57,57,1,1,OLD,OLD,,,,,,,,
,,,,,,,,,,,,,,,,TestWords/NU_CHAY_SO.wav,,602fa684fc65e0cb663c1970,2021-07-09_17h09.42.143,Agingstudy_mst,2020.2.10,Win32,60,60e8550594adb1982c6cb1b5,60e866a7d1b26f743cf5e615,,,,,B,,,,,,,,,,,,,,,2,1,0.941,0,58,58,58,1,2,NEW,NEW,,,,,,,,
,,,,,,,,,,,,,,,,TestWords/KO_SU_FAI.wav,,602fa684fc65e0cb663c1970,2021-07-09_17h09.42.143,Agingstudy_mst,2020.2.10,Win32,60,60e8550594adb1982c6cb1b5,60e866a7d1b26f743cf5e615,,,,,B,,,,,,,,,,,,,,,1,1,1.058,0,59,59,59,1,1,OLD,OLD,,,,,,,,
,,,,,,,,,,,,,,,,TestWords/RAY_PA_TI.wav,,602fa684fc65e0cb663c1970,2021-07-09_17h09.42.143,Agingstudy_mst,2020.2.10,Win32,60,60e8550594adb1982c6cb1b5,60e866a7d1b26f743cf5e615,,,,,B,,,,,,,,,,,,,,,1,1,1.059,0,60,60,60,1,1,OLD,OLD,,,,,,,,
,,,,,,,,,,,,,,,,TestWords/BA_KAY_LI.wav,,602fa684fc65e0cb663c1970,2021-07-09_17h09.42.143,Agingstudy_mst,2020.2.10,Win32,60,60e8550594adb1982c6cb1b5,60e866a7d1b26f743cf5e615,,,,,B,,,,,,,,,,,,,,,2,1,0.581,0,61,61,61,1,2,NEW,NEW,,,,,,,,
,,,,,,,,,,,,,,,,TestWords/KAI_LAY_TA.wav,,602fa684fc65e0cb663c1970,2021-07-09_17h09.42.143,Agingstudy_mst,2020.2.10,Win32,60,60e8550594adb1982c6cb1b5,60e866a7d1b26f743cf5e615,,,,,B,,,,,,,,,,,,,,,2,0,0.759,0,62,62,62,1,1,OLD,OLD,,,,,,,,
,,,,,,,,,,,,,,,,TestWords/NA_VU_WAI.wav,,602fa684fc65e0cb663c1970,2021-07-09_17h09.42.143,Agingstudy_mst,2020.2.10,Win32,60,60e8550594adb1982c6cb1b5,60e866a7d1b26f743cf5e615,,,,,B,,,,,,,,,,,,,,,2,1,0.604,0,63,63,63,1,2,NEW,SIMILAR,,,,,,,,
,,,,,,,,,,,,,,,,TestWords/GA_MU_ZI.wav,,602fa684fc65e0cb663c1970,2021-07-09_17h09.42.143,Agingstudy_mst,2020.2.10,Win32,60,60e8550594adb1982c6cb1b5,60e866a7d1b26f743cf5e615,,,,,B,,,,,,,,,,,,,,,1,1,0.302,0,64,64,64,1,1,OLD,OLD,,,,,,,,
,,,,,,,,,,,,,,,,TestWords/KO_SU_FAI.wav,,602fa684fc65e0cb663c1970,2021-07-09_17h09.42.143,Agingstudy_mst,2020.2.10,Win32,60,60e8550594adb1982c6cb1b5,60e866a7d1b26f743cf5e615,,,,,B,,,,,,,,,,,,,,,1,1,0.88,0,65,65,65,1,1,OLD,OLD,,,,,,,,
,,,,,,,,,,,,,,,,TestWords/DAI_RU_CHI.wav,,602fa684fc65e0cb663c1970,2021-07-09_17h09.42.143,Agingstudy_mst,2020.2.10,Win32,60,60e8550594adb1982c6cb1b5,60e866a7d1b26f743cf5e615,,,,,B,,,,,,,,,,,,,,,1,1,0.466,0,66,66,66,1,1,OLD,OLD,,,,,,,,
,,,,,,,,,,,,,,,,TestWords/GU_CHAI_PI.wav,,602fa684fc65e0cb663c1970,2021-07-09_17h09.42.143,Agingstudy_mst,2020.2.10,Win32,60,60e8550594adb1982c6cb1b5,60e866a7d1b26f743cf5e615,,,,,B,,,,,,,,,,,,,,,2,1,0.989,0,67,67,67,1,2,NEW,NEW,,,,,,,,
,,,,,,,,,,,,,,,,TestWords/RAY_PA_TI.wav,,602fa684fc65e0cb663c1970,2021-07-09_17h09.42.143,Agingstudy_mst,2020.2.10,Win32,60,60e8550594adb1982c6cb1b5,60e866a7d1b26f743cf5e615,,,,,B,,,,,,,,,,,,,,,1,1,0.919,0,68,68,68,1,1,OLD,OLD,,,,,,,,
,,,,,,,,,,,,,,,,TestWords/KAY_LI_BA.wav,,602fa684fc65e0cb663c1970,2021-07-09_17h09.42.143,Agingstudy_mst,2020.2.10,Win32,60,60e8550594adb1982c6cb1b5,60e866a7d1b26f743cf5e615,,,,,B,,,,,,,,,,,,,,,2,1,2.139,0,69,69,69,1,2,NEW,SIMILAR,,,,,,,,
,,,,,,,,,,,,,,,,TestWords/KAI_LAY_TA.wav,,602fa684fc65e0cb663c1970,2021-07-09_17h09.42.143,Agingstudy_mst,2020.2.10,Win32,60,60e8550594adb1982c6cb1b5,60e866a7d1b26f743cf5e615,,,,,B,,,,,,,,,,,,,,,2,0,2.66,0,70,70,70,1,1,OLD,OLD,,,,,,,,
,,,,,,,,,,,,,,,,TestWords/KO_SU_FAI.wav,,602fa684fc65e0cb663c1970,2021-07-09_17h09.42.143,Agingstudy_mst,2020.2.10,Win32,60,60e8550594adb1982c6cb1b5,60e866a7d1b26f743cf5e615,,,,,B,,,,,,,,,,,,,,,1,1,0.413,0,71,71,71,1,1,OLD,OLD,,,,,,,,
,,,,,,,,,,,,,,,,TestWords/DAI_RU_CHI.wav,,602fa684fc65e0cb663c1970,2021-07-09_17h09.42.143,Agingstudy_mst,2020.2.10,Win32,60,60e8550594adb1982c6cb1b5,60e866a7d1b26f743cf5e615,,,,,B,,,,,,,,,,,,,,,1,1,1.769,0,72,72,72,1,1,OLD,OLD,,,,,,,,
,,,,,,,,,,,,,,,,TestWords/NA_WAI_VU.wav,,602fa684fc65e0cb663c1970,2021-07-09_17h09.42.143,Agingstudy_mst,2020.2.10,Win32,60,60e8550594adb1982c6cb1b5,60e866a7d1b26f743cf5e615,,,,,B,,,,,,,,,,,,,,,1,0,2.308,0,73,73,73,1,2,NEW,SIMILAR,,,,,,,,
,,,,,,,,,,,,,,,,TestWords/GA_MU_ZI.wav,,602fa684fc65e0cb663c1970,2021-07-09_17h09.42.143,Agingstudy_mst,2020.2.10,Win32,60,60e8550594adb1982c6cb1b5,60e866a7d1b26f743cf5e615,,,,,B,,,,,,,,,,,,,,,1,1,2.089,0,74,74,74,1,1,OLD,OLD,,,,,,,,
,,,,,,,,,,,,,,,,TestWords/KAY_BA_LI.wav,,602fa684fc65e0cb663c1970,2021-07-09_17h09.42.143,Agingstudy_mst,2020.2.10,Win32,60,60e8550594adb1982c6cb1b5,60e866a7d1b26f743cf5e615,,,,,B,,,,,,,,,,,,,,,2,1,2.668,0,75,75,75,1,2,NEW,SIMILAR,,,,,,,,
,,,,,,,,,,,,,,,,TestWords/WAI_RO_JU.wav,,602fa684fc65e0cb663c1970,2021-07-09_17h09.42.143,Agingstudy_mst,2020.2.10,Win32,60,60e8550594adb1982c6cb1b5,60e866a7d1b26f743cf5e615,,,,,B,,,,,,,,,,,,,,,2,1,1.425,0,76,76,76,1,2,NEW,NEW,,,,,,,,
,,,,,,,,,,,,,,,,TestWords/RAY_PA_TI.wav,,602fa684fc65e0cb663c1970,2021-07-09_17h09.42.143,Agingstudy_mst,2020.2.10,Win32,60,60e8550594adb1982c6cb1b5,60e866a7d1b26f743cf5e615,,,,,B,,,,,,,,,,,,,,,1,1,0.503,0,77,77,77,1,1,OLD,OLD,,,,,,,,
,,,,,,,,,,,,,,,,TestWords/KAI_LAY_TA.wav,,602fa684fc65e0cb663c1970,2021-07-09_17h09.42.143,Agingstudy_mst,2020.2.10,Win32,60,60e8550594adb1982c6cb1b5,60e866a7d1b26f743cf5e615,,,,,B,,,,,,,,,,,,,,,1,1,0.889,0,78,78,78,1,1,OLD,OLD,,,,,,,,
,,,,,,,,,,,,,,,,TestWords/HI_NAY_VA.wav,,602fa684fc65e0cb663c1970,2021-07-09_17h09.42.143,Agingstudy_mst,2020.2.10,Win32,60,60e8550594adb1982c6cb1b5,60e866a7d1b26f743cf5e615,,,,,B,,,,,,,,,,,,,,,2,1,0.284,0,79,79,79,1,2,NEW,NEW,,,,,,,,
,,,,,,,,,,,,,,,,TestWords/KO_SU_FAI.wav,,602fa684fc65e0cb663c1970,2021-07-09_17h09.42.143,Agingstudy_mst,2020.2.10,Win32,60,60e8550594adb1982c6cb1b5,60e866a7d1b26f743cf5e615,,,,,B,,,,,,,,,,,,,,,1,1,0.425,0,80,80,80,1,1,OLD,OLD,,,,,,,,
,,,,,,,,,,,,,,,,TestWords/GA_MU_ZI.wav,,602fa684fc65e0cb663c1970,2021-07-09_17h09.42.143,Agingstudy_mst,2020.2.10,Win32,60,60e8550594adb1982c6cb1b5,60e866a7d1b26f743cf5e615,,,,,B,,,,,,,,,,,,,,,1,1,0.685,0,81,81,81,1,1,OLD,OLD,,,,,,,,
,,,,,,,,,,,,,,,,TestWords/KAI_LAY_TA.wav,,602fa684fc65e0cb663c1970,2021-07-09_17h09.42.143,Agingstudy_mst,2020.2.10,Win32,60,60e8550594adb1982c6cb1b5,60e866a7d1b26f743cf5e615,,,,,B,,,,,,,,,,,,,,,1,1,0.868,0,82,82,82,1,1,OLD,OLD,,,,,,,,
,,,,,,,,,,,,,,,,TestWords/LI_BA_KAY.wav,,602fa684fc65e0cb663c1970,2021-07-09_17h09.42.143,Agingstudy_mst,2020.2.10,Win32,60,60e8550594adb1982c6cb1b5,60e866a7d1b26f743cf5e615,,,,,B,,,,,,,,,,,,,,,2,1,0.495,0,83,83,83,1,2,NEW,SIMILAR,,,,,,,,
,,,,,,,,,,,,,,,,TestWords/DAI_RU_CHI.wav,,602fa684fc65e0cb663c1970,2021-07-09_17h09.42.143,Agingstudy_mst,2020.2.10,Win32,60,60e8550594adb1982c6cb1b5,60e866a7d1b26f743cf5e615,,,,,B,,,,,,,,,,,,,,,1,1,0.301,0,84,84,84,1,1,OLD,OLD,,,,,,,,
,,,,,,,,,,,,,,,,TestWords/KO_SU_FAI.wav,,602fa684fc65e0cb663c1970,2021-07-09_17h09.42.143,Agingstudy_mst,2020.2.10,Win32,60,60e8550594adb1982c6cb1b5,60e866a7d1b26f743cf5e615,,,,,B,,,,,,,,,,,,,,,1,1,0.343,0,85,85,85,1,1,OLD,OLD,,,,,,,,
,,,,,,,,,,,,,,,,TestWords/NO_WA_BAY.wav,,602fa684fc65e0cb663c1970,2021-07-09_17h09.42.143,Agingstudy_mst,2020.2.10,Win32,60,60e8550594adb1982c6cb1b5,60e866a7d1b26f743cf5e615,,,,,B,,,,,,,,,,,,,,,2,1,0.392,0,86,86,86,1,2,NEW,NEW,,,,,,,,
,,,,,,,,,,,,,,,,TestWords/KAI_LAY_TA.wav,,602fa684fc65e0cb663c1970,2021-07-09_17h09.42.143,Agingstudy_mst,2020.2.10,Win32,60,60e8550594adb1982c6cb1b5,60e866a7d1b26f743cf5e615,,,,,B,,,,,,,,,,,,,,,1,1,0.894,0,87,87,87,1,1,OLD,OLD,,,,,,,,
,,,,,,,,,,,,,,,,TestWords/GA_MU_ZI.wav,,602fa684fc65e0cb663c1970,2021-07-09_17h09.42.143,Agingstudy_mst,2020.2.10,Win32,60,60e8550594adb1982c6cb1b5,60e866a7d1b26f743cf5e615,,,,,B,,,,,,,,,,,,,,,1,1,0.704,0,88,88,88,1,1,OLD,OLD,,,,,,,,
,,,,,,,,,,,,,,,,TestWords/DAI_RU_CHI.wav,,602fa684fc65e0cb663c1970,2021-07-09_17h09.42.143,Agingstudy_mst,2020.2.10,Win32,60,60e8550594adb1982c6cb1b5,60e866a7d1b26f743cf5e615,,,,,B,,,,,,,,,,,,,,,1,1,0.844,0,89,89,89,1,1,OLD,OLD,,,,,,,,
,,,,,,,,,,,,,,,,TestWords/LA_ZAY_CHAI.wav,,602fa684fc65e0cb663c1970,2021-07-09_17h09.42.143,Agingstudy_mst,2020.2.10,Win32,60,60e8550594adb1982c6cb1b5,60e866a7d1b26f743cf5e615,,,,,B,,,,,,,,,,,,,,,2,1,0.937,0,90,90,90,1,2,NEW,NEW,,,,,,,,
,,,,,,,,,,,,,,,,TestWords/BA_LI_KAY.wav,,602fa684fc65e0cb663c1970,2021-07-09_17h09.42.143,Agingstudy_mst,2020.2.10,Win32,60,60e8550594adb1982c6cb1b5,60e866a7d1b26f743cf5e615,,,,,B,,,,,,,,,,,,,,,2,1,2.714,0,91,91,91,1,2,NEW,SIMILAR,,,,,,,,
,,,,,,,,,,,,,,,,TestWords/PAI_LU_WA.wav,,602fa684fc65e0cb663c1970,2021-07-09_17h09.42.143,Agingstudy_mst,2020.2.10,Win32,60,60e8550594adb1982c6cb1b5,60e866a7d1b26f743cf5e615,,,,,B,,,,,,,,,,,,,,,2,1,1.103,0,92,92,92,1,2,NEW,NEW,,,,,,,,
,,,,,,,,,,,,,,,,TestWords/KO_SU_FAI.wav,,602fa684fc65e0cb663c1970,2021-07-09_17h09.42.143,Agingstudy_mst,2020.2.10,Win32,60,60e8550594adb1982c6cb1b5,60e866a7d1b26f743cf5e615,,,,,B,,,,,,,,,,,,,,,1,1,0.183,0,93,93,93,1,1,OLD,OLD,,,,,,,,
,,,,,,,,,,,,,,,,TestWords/KAI_LAY_TA.wav,,602fa684fc65e0cb663c1970,2021-07-09_17h09.42.143,Agingstudy_mst,2020.2.10,Win32,60,60e8550594adb1982c6cb1b5,60e866a7d1b26f743cf5e615,,,,,B,,,,,,,,,,,,,,,1,1,0.972,0,94,94,94,1,1,OLD,OLD,,,,,,,,
,,,,,,,,,,,,,,,,TestWords/VAI_HO_LA.wav,,602fa684fc65e0cb663c1970,2021-07-09_17h09.42.143,Agingstudy_mst,2020.2.10,Win32,60,60e8550594adb1982c6cb1b5,60e866a7d1b26f743cf5e615,,,,,B,,,,,,,,,,,,,,,2,1,1.267,0,95,95,95,1,2,NEW,NEW,,,,,,,,
,,,,,,,,,,,,,,,,TestWords/GA_MU_ZI.wav,,602fa684fc65e0cb663c1970,2021-07-09_17h09.42.143,Agingstudy_mst,2020.2.10,Win32,60,60e8550594adb1982c6cb1b5,60e866a7d1b26f743cf5e615,,,,,B,,,,,,,,,,,,,,,1,1,0.736,0,96,96,96,1,1,OLD,OLD,,,,,,,,
,,,,,,,,,,,,,,,,TestWords/LI_KAY_BA.wav,,602fa684fc65e0cb663c1970,2021-07-09_17h09.42.143,Agingstudy_mst,2020.2.10,Win32,60,60e8550594adb1982c6cb1b5,60e866a7d1b26f743cf5e615,,,,,B,,,,,,,,,,,,,,,2,1,0.759,0,97,97,97,1,2,NEW,SIMILAR,,,,,,,,
,,,,,,,,,,,,,,,,TestWords/KAI_LAY_TA.wav,,602fa684fc65e0cb663c1970,2021-07-09_17h09.42.143,Agingstudy_mst,2020.2.10,Win32,60,60e8550594adb1982c6cb1b5,60e866a7d1b26f743cf5e615,,,,,B,,,,,,,,,,,,,,,1,1,0.533,0,98,98,98,1,1,OLD,OLD,,,,,,,,
,,,,,,,,,,,,,,,,TestWords/SI_VAI_CHU.wav,,602fa684fc65e0cb663c1970,2021-07-09_17h09.42.143,Agingstudy_mst,2020.2.10,Win32,60,60e8550594adb1982c6cb1b5,60e866a7d1b26f743cf5e615,,,,,B,,,,,,,,,,,,,,,2,1,1.079,0,99,99,99,1,2,NEW,NEW,,,,,,,,
,,,,,,,,,,,,,,,,,,602fa684fc65e0cb663c1970,2021-07-09_17h09.42.143,Agingstudy_mst,2020.2.10,Win32,60,60e8550594adb1982c6cb1b5,60e866a7d1b26f743cf5e615,,,,,,,,,,,,,,,,,,,,,,,,,,,,,,,0,0,0,0,1,,,
,,,,,,,,,,,,,,,,,,602fa684fc65e0cb663c1970,2021-07-09_17h09.42.143,Agingstudy_mst,2020.2.10,Win32,60,60e8550594adb1982c6cb1b5,60e866a7d1b26f743cf5e615,,,,,,,,,,,,,,,,,,,,,,,,,,,,,,,,,,,,return,16.838,
