Welcome0Continue.keys,Welcome0Continue.rt,SoundCheckBegin.keys,SoundCheckBegin.rt,SoundCheckEndKey.keys,SoundCheckEndKey.rt,HeadphoneContinueKey.keys,HeadphoneContinueKey.rt,CheckResp.keys,CheckResp.corr,CheckResp.rt,HeadphoneLoop.thisRepN,HeadphoneLoop.thisTrialN,HeadphoneLoop.thisN,HeadphoneLoop.thisIndex,HeadphoneLoop.ran,File,Correct,participant,date,expName,psychopyVersion,OS,frameRate,ContinueKey8.keys,ContinueKey8.rt,MSTWelcomeContKey.keys,MSTWelcomeContKey.rt,Condition,MSTTrainIntroKey.keys,MSTTrainIntroKey.rt,MSTTrainKeys.keys,MSTTrainKeys.corr,MSTTrainKeys.rt,MSTTrainLoop.thisRepN,MSTTrainLoop.thisTrialN,MSTTrainLoop.thisN,MSTTrainLoop.thisIndex,MSTTrainLoop.ran,SoundFile,Type,MSTTestBeginKey.keys,MSTTestBeginKey.rt,MST_resp.keys,MST_resp.corr,MST_resp.rt,MSTPlayLoop.thisRepN,MSTPlayLoop.thisTrialN,MSTPlayLoop.thisN,MSTPlayLoop.thisIndex,MSTPlayLoop.ran,WordCorrect,Correct_type,WordType,MSTLoop.thisRepN,MSTLoop.thisTrialN,MSTLoop.thisN,MSTLoop.thisIndex,MSTLoop.ran,EndAllKey.keys,EndAllKey.rt,FeedbackResp.text
space,12.665,space,7.651,space,4.474,space,27.5758,2,1,2.2335,0,0,0,2,1,Headphone/t2_1.wav,2,609d952e0aeb66af769d89cb,2021-07-14_16h14.52.149,Agingstudy,2020.2.10,Win32,60,,,,,,,,,,,,,,,,,,,,,,,,,,,,,,,,,,,,,,
,,,,,,,,3,1,1.4227,0,1,1,4,1,Headphone/t3_1.wav,3,609d952e0aeb66af769d89cb,2021-07-14_16h14.52.149,Agingstudy,2020.2.10,Win32,60,,,,,,,,,,,,,,,,,,,,,,,,,,,,,,,,,,,,,,
,,,,,,,,3,1,1.0464,0,2,2,5,1,Headphone/t3_2.wav,3,609d952e0aeb66af769d89cb,2021-07-14_16h14.52.149,Agingstudy,2020.2.10,Win32,60,,,,,,,,,,,,,,,,,,,,,,,,,,,,,,,,,,,,,,
,,,,,,,,2,1,0.8888,0,3,3,3,1,Headphone/t2_2.wav,2,609d952e0aeb66af769d89cb,2021-07-14_16h14.52.149,Agingstudy,2020.2.10,Win32,60,,,,,,,,,,,,,,,,,,,,,,,,,,,,,,,,,,,,,,
,,,,,,,,1,1,0.8701,0,4,4,1,1,Headphone/t1_2.wav,1,609d952e0aeb66af769d89cb,2021-07-14_16h14.52.149,Agingstudy,2020.2.10,Win32,60,,,,,,,,,,,,,,,,,,,,,,,,,,,,,,,,,,,,,,
,,,,,,,,1,1,0.8843,0,5,5,0,1,Headphone/t1_1.wav,1,609d952e0aeb66af769d89cb,2021-07-14_16h14.52.149,Agingstudy,2020.2.10,Win32,60,,,,,,,,,,,,,,,,,,,,,,,,,,,,,,,,,,,,,,
,,,,,,,,,,,,,,,,,2,609d952e0aeb66af769d89cb,2021-07-14_16h14.52.149,Agingstudy,2020.2.10,Win32,60,space,31.9262,space,12.5215,1,space,7.2174,2,1,2.3741,0,0,0,0,1,Training/FO_YI_LAY.wav,NEW,,,,,,,,,,,,,,,,,,,,,
,,,,,,,,,,,,,,,,,1,609d952e0aeb66af769d89cb,2021-07-14_16h14.52.149,Agingstudy,2020.2.10,Win32,60,,,,,,,,2,0,1.8345,0,1,1,1,1,Training/FO_YI_LAY.wav,OLD,,,,,,,,,,,,,,,,,,,,,
,,,,,,,,,,,,,,,,,2,609d952e0aeb66af769d89cb,2021-07-14_16h14.52.149,Agingstudy,2020.2.10,Win32,60,,,,,,,,2,1,2.5473,0,2,2,2,1,Training/YO_BU_JAY.wav,NEW,,,,,,,,,,,,,,,,,,,,,
,,,,,,,,,,,,,,,,,2,609d952e0aeb66af769d89cb,2021-07-14_16h14.52.149,Agingstudy,2020.2.10,Win32,60,,,,,,,,2,1,4.3565,0,3,3,3,1,Training/JAY_YO_BU.wav,SIMILAR,,,,,,,,,,,,,,,,,,,,,
,,,,,,,,,,,,,,,,,1,609d952e0aeb66af769d89cb,2021-07-14_16h14.52.149,Agingstudy,2020.2.10,Win32,60,,,,,,,,1,1,1.484,0,4,4,4,1,Training/FO_YI_LAY.wav,OLD,,,,,,,,,,,,,,,,,,,,,
,,,,,,,,,,,,,,,,TestWords/HA_SI_JAI.wav,,609d952e0aeb66af769d89cb,2021-07-14_16h14.52.149,Agingstudy,2020.2.10,Win32,60,,,,,C,,,,,,,,,,,,,space,12.3306,2,1,1.7725,0,0,0,0,1,2,NEW,NEW,,,,,,,,
,,,,,,,,,,,,,,,,TestWords/NO_WA_BAY.wav,,609d952e0aeb66af769d89cb,2021-07-14_16h14.52.149,Agingstudy,2020.2.10,Win32,60,,,,,C,,,,,,,,,,,,,,,2,1,1.3191,0,1,1,1,1,2,NEW,NEW,,,,,,,,
,,,,,,,,,,,,,,,,TestWords/KO_SU_FAI.wav,,609d952e0aeb66af769d89cb,2021-07-14_16h14.52.149,Agingstudy,2020.2.10,Win32,60,,,,,C,,,,,,,,,,,,,,,2,1,1.3191,0,2,2,2,1,2,NEW,NEW,,,,,,,,
,,,,,,,,,,,,,,,,TestWords/TAI_SA_GI.wav,,609d952e0aeb66af769d89cb,2021-07-14_16h14.52.149,Agingstudy,2020.2.10,Win32,60,,,,,C,,,,,,,,,,,,,,,2,1,1.3611,0,3,3,3,1,2,NEW,NEW,,,,,,,,
,,,,,,,,,,,,,,,,TestWords/HO_NAY_VA.wav,,609d952e0aeb66af769d89cb,2021-07-14_16h14.52.149,Agingstudy,2020.2.10,Win32,60,,,,,C,,,,,,,,,,,,,,,2,1,1.4889,0,4,4,4,1,2,NEW,NEW,,,,,,,,
,,,,,,,,,,,,,,,,TestWords/KAI_LAY_TA.wav,,609d952e0aeb66af769d89cb,2021-07-14_16h14.52.149,Agingstudy,2020.2.10,Win32,60,,,,,C,,,,,,,,,,,,,,,2,1,1.3671,0,5,5,5,1,2,NEW,NEW,,,,,,,,
,,,,,,,,,,,,,,,,TestWords/FI_GU_CHA.wav,,609d952e0aeb66af769d89cb,2021-07-14_16h14.52.149,Agingstudy,2020.2.10,Win32,60,,,,,C,,,,,,,,,,,,,,,2,1,1.2784,0,6,6,6,1,2,NEW,NEW,,,,,,,,
,,,,,,,,,,,,,,,,TestWords/GI_SA_TAI.wav,,609d952e0aeb66af769d89cb,2021-07-14_16h14.52.149,Agingstudy,2020.2.10,Win32,60,,,,,C,,,,,,,,,,,,,,,2,1,1.2077,0,7,7,7,1,2,NEW,SIMILAR,,,,,,,,
,,,,,,,,,,,,,,,,TestWords/LU_HAI_BO.wav,,609d952e0aeb66af769d89cb,2021-07-14_16h14.52.149,Agingstudy,2020.2.10,Win32,60,,,,,C,,,,,,,,,,,,,,,2,1,0.993,0,8,8,8,1,2,NEW,NEW,,,,,,,,
,,,,,,,,,,,,,,,,TestWords/KO_SU_FAI.wav,,609d952e0aeb66af769d89cb,2021-07-14_16h14.52.149,Agingstudy,2020.2.10,Win32,60,,,,,C,,,,,,,,,,,,,,,1,1,1.1447,0,9,9,9,1,1,OLD,OLD,,,,,,,,
,,,,,,,,,,,,,,,,TestWords/DAI_RU_CHI.wav,,609d952e0aeb66af769d89cb,2021-07-14_16h14.52.149,Agingstudy,2020.2.10,Win32,60,,,,,C,,,,,,,,,,,,,,,2,1,0.3954,0,10,10,10,1,2,NEW,NEW,,,,,,,,
,,,,,,,,,,,,,,,,TestWords/CHU_LA_PAY.wav,,609d952e0aeb66af769d89cb,2021-07-14_16h14.52.149,Agingstudy,2020.2.10,Win32,60,,,,,C,,,,,,,,,,,,,,,2,1,0.9262,0,11,11,11,1,2,NEW,NEW,,,,,,,,
,,,,,,,,,,,,,,,,TestWords/KAI_LAY_TA.wav,,609d952e0aeb66af769d89cb,2021-07-14_16h14.52.149,Agingstudy,2020.2.10,Win32,60,,,,,C,,,,,,,,,,,,,,,1,1,1.0539,0,12,12,12,1,1,OLD,OLD,,,,,,,,
,,,,,,,,,,,,,,,,TestWords/GI_TAI_SA.wav,,609d952e0aeb66af769d89cb,2021-07-14_16h14.52.149,Agingstudy,2020.2.10,Win32,60,,,,,C,,,,,,,,,,,,,,,2,1,1.2596,0,13,13,13,1,2,NEW,SIMILAR,,,,,,,,
,,,,,,,,,,,,,,,,TestWords/DAY_PU_MO.wav,,609d952e0aeb66af769d89cb,2021-07-14_16h14.52.149,Agingstudy,2020.2.10,Win32,60,,,,,C,,,,,,,,,,,,,,,2,1,1.0342,0,14,14,14,1,2,NEW,NEW,,,,,,,,
,,,,,,,,,,,,,,,,TestWords/KO_SU_FAI.wav,,609d952e0aeb66af769d89cb,2021-07-14_16h14.52.149,Agingstudy,2020.2.10,Win32,60,,,,,C,,,,,,,,,,,,,,,1,1,1.5296,0,15,15,15,1,1,OLD,OLD,,,,,,,,
,,,,,,,,,,,,,,,,TestWords/SA_TAI_GI.wav,,609d952e0aeb66af769d89cb,2021-07-14_16h14.52.149,Agingstudy,2020.2.10,Win32,60,,,,,C,,,,,,,,,,,,,,,1,0,1.5527,0,16,16,16,1,2,NEW,SIMILAR,,,,,,,,
,,,,,,,,,,,,,,,,TestWords/RAY_PA_TI.wav,,609d952e0aeb66af769d89cb,2021-07-14_16h14.52.149,Agingstudy,2020.2.10,Win32,60,,,,,C,,,,,,,,,,,,,,,2,1,1.0343,0,17,17,17,1,2,NEW,NEW,,,,,,,,
,,,,,,,,,,,,,,,,TestWords/KAI_LAY_TA.wav,,609d952e0aeb66af769d89cb,2021-07-14_16h14.52.149,Agingstudy,2020.2.10,Win32,60,,,,,C,,,,,,,,,,,,,,,1,1,1.0178,0,18,18,18,1,1,OLD,OLD,,,,,,,,
,,,,,,,,,,,,,,,,TestWords/DAY_MO_PU.wav,,609d952e0aeb66af769d89cb,2021-07-14_16h14.52.149,Agingstudy,2020.2.10,Win32,60,,,,,C,,,,,,,,,,,,,,,1,0,1.1755,0,19,19,19,1,2,NEW,SIMILAR,,,,,,,,
,,,,,,,,,,,,,,,,TestWords/DAI_RU_CHI.wav,,609d952e0aeb66af769d89cb,2021-07-14_16h14.52.149,Agingstudy,2020.2.10,Win32,60,,,,,C,,,,,,,,,,,,,,,2,0,1.5252,0,20,20,20,1,1,OLD,OLD,,,,,,,,
,,,,,,,,,,,,,,,,TestWords/SA_GI_TAI.wav,,609d952e0aeb66af769d89cb,2021-07-14_16h14.52.149,Agingstudy,2020.2.10,Win32,60,,,,,C,,,,,,,,,,,,,,,1,0,1.1172,0,21,21,21,1,2,NEW,SIMILAR,,,,,,,,
,,,,,,,,,,,,,,,,TestWords/KO_SU_FAI.wav,,609d952e0aeb66af769d89cb,2021-07-14_16h14.52.149,Agingstudy,2020.2.10,Win32,60,,,,,C,,,,,,,,,,,,,,,2,0,1.3027,0,22,22,22,1,1,OLD,OLD,,,,,,,,
,,,,,,,,,,,,,,,,TestWords/KAI_LAY_TA.wav,,609d952e0aeb66af769d89cb,2021-07-14_16h14.52.149,Agingstudy,2020.2.10,Win32,60,,,,,C,,,,,,,,,,,,,,,1,1,0.985,0,23,23,23,1,1,OLD,OLD,,,,,,,,
,,,,,,,,,,,,,,,,TestWords/RAY_PA_TI.wav,,609d952e0aeb66af769d89cb,2021-07-14_16h14.52.149,Agingstudy,2020.2.10,Win32,60,,,,,C,,,,,,,,,,,,,,,1,1,0.8774,0,24,24,24,1,1,OLD,OLD,,,,,,,,
,,,,,,,,,,,,,,,,TestWords/MO_DAY_PU.wav,,609d952e0aeb66af769d89cb,2021-07-14_16h14.52.149,Agingstudy,2020.2.10,Win32,60,,,,,C,,,,,,,,,,,,,,,1,0,1.2852,0,25,25,25,1,2,NEW,SIMILAR,,,,,,,,
,,,,,,,,,,,,,,,,TestWords/DAI_RU_CHI.wav,,609d952e0aeb66af769d89cb,2021-07-14_16h14.52.149,Agingstudy,2020.2.10,Win32,60,,,,,C,,,,,,,,,,,,,,,1,1,0.7101,0,26,26,26,1,1,OLD,OLD,,,,,,,,
,,,,,,,,,,,,,,,,TestWords/TAI_GI_SA.wav,,609d952e0aeb66af769d89cb,2021-07-14_16h14.52.149,Agingstudy,2020.2.10,Win32,60,,,,,C,,,,,,,,,,,,,,,1,0,1.1934,0,27,27,27,1,2,NEW,SIMILAR,,,,,,,,
,,,,,,,,,,,,,,,,TestWords/GA_MU_ZI.wav,,609d952e0aeb66af769d89cb,2021-07-14_16h14.52.149,Agingstudy,2020.2.10,Win32,60,,,,,C,,,,,,,,,,,,,,,2,1,1.0683,0,28,28,28,1,2,NEW,NEW,,,,,,,,
,,,,,,,,,,,,,,,,TestWords/BA_KAY_LI.wav,,609d952e0aeb66af769d89cb,2021-07-14_16h14.52.149,Agingstudy,2020.2.10,Win32,60,,,,,C,,,,,,,,,,,,,,,2,1,0.7294,0,29,29,29,1,2,NEW,NEW,,,,,,,,
,,,,,,,,,,,,,,,,TestWords/RAY_PA_TI.wav,,609d952e0aeb66af769d89cb,2021-07-14_16h14.52.149,Agingstudy,2020.2.10,Win32,60,,,,,C,,,,,,,,,,,,,,,1,1,0.7184,0,30,30,30,1,1,OLD,OLD,,,,,,,,
,,,,,,,,,,,,,,,,TestWords/KO_SU_FAI.wav,,609d952e0aeb66af769d89cb,2021-07-14_16h14.52.149,Agingstudy,2020.2.10,Win32,60,,,,,C,,,,,,,,,,,,,,,1,1,1.312,0,31,31,31,1,1,OLD,OLD,,,,,,,,
,,,,,,,,,,,,,,,,TestWords/PU_DAY_MO.wav,,609d952e0aeb66af769d89cb,2021-07-14_16h14.52.149,Agingstudy,2020.2.10,Win32,60,,,,,C,,,,,,,,,,,,,,,1,0,0.7951,0,32,32,32,1,2,NEW,SIMILAR,,,,,,,,
,,,,,,,,,,,,,,,,TestWords/KAI_LAY_TA.wav,,609d952e0aeb66af769d89cb,2021-07-14_16h14.52.149,Agingstudy,2020.2.10,Win32,60,,,,,C,,,,,,,,,,,,,,,1,1,0.8044,0,33,33,33,1,1,OLD,OLD,,,,,,,,
,,,,,,,,,,,,,,,,TestWords/DAI_RU_CHI.wav,,609d952e0aeb66af769d89cb,2021-07-14_16h14.52.149,Agingstudy,2020.2.10,Win32,60,,,,,C,,,,,,,,,,,,,,,1,1,0.9209,0,34,34,34,1,1,OLD,OLD,,,,,,,,
,,,,,,,,,,,,,,,,TestWords/KAY_LI_BA.wav,,609d952e0aeb66af769d89cb,2021-07-14_16h14.52.149,Agingstudy,2020.2.10,Win32,60,,,,,C,,,,,,,,,,,,,,,2,1,1.2346,0,35,35,35,1,2,NEW,SIMILAR,,,,,,,,
,,,,,,,,,,,,,,,,TestWords/GA_MU_ZI.wav,,609d952e0aeb66af769d89cb,2021-07-14_16h14.52.149,Agingstudy,2020.2.10,Win32,60,,,,,C,,,,,,,,,,,,,,,2,0,1.5383,0,36,36,36,1,1,OLD,OLD,,,,,,,,
,,,,,,,,,,,,,,,,TestWords/RAY_PA_TI.wav,,609d952e0aeb66af769d89cb,2021-07-14_16h14.52.149,Agingstudy,2020.2.10,Win32,60,,,,,C,,,,,,,,,,,,,,,1,1,0.6441,0,37,37,37,1,1,OLD,OLD,,,,,,,,
,,,,,,,,,,,,,,,,TestWords/PU_MO_DAY.wav,,609d952e0aeb66af769d89cb,2021-07-14_16h14.52.149,Agingstudy,2020.2.10,Win32,60,,,,,C,,,,,,,,,,,,,,,1,0,0.9117,0,38,38,38,1,2,NEW,SIMILAR,,,,,,,,
,,,,,,,,,,,,,,,,TestWords/VAI_HO_LA.wav,,609d952e0aeb66af769d89cb,2021-07-14_16h14.52.149,Agingstudy,2020.2.10,Win32,60,,,,,C,,,,,,,,,,,,,,,2,1,1.0246,0,39,39,39,1,2,NEW,NEW,,,,,,,,
,,,,,,,,,,,,,,,,TestWords/KAI_LAY_TA.wav,,609d952e0aeb66af769d89cb,2021-07-14_16h14.52.149,Agingstudy,2020.2.10,Win32,60,,,,,C,,,,,,,,,,,,,,,1,1,0.8177,0,40,40,40,1,1,OLD,OLD,,,,,,,,
,,,,,,,,,,,,,,,,TestWords/KO_SU_FAI.wav,,609d952e0aeb66af769d89cb,2021-07-14_16h14.52.149,Agingstudy,2020.2.10,Win32,60,,,,,C,,,,,,,,,,,,,,,1,1,1.0787,0,41,41,41,1,1,OLD,OLD,,,,,,,,
,,,,,,,,,,,,,,,,TestWords/DAI_RU_CHI.wav,,609d952e0aeb66af769d89cb,2021-07-14_16h14.52.149,Agingstudy,2020.2.10,Win32,60,,,,,C,,,,,,,,,,,,,,,1,1,0.7736,0,42,42,42,1,1,OLD,OLD,,,,,,,,
,,,,,,,,,,,,,,,,TestWords/WAI_VU_NA.wav,,609d952e0aeb66af769d89cb,2021-07-14_16h14.52.149,Agingstudy,2020.2.10,Win32,60,,,,,C,,,,,,,,,,,,,,,2,1,0.9288,0,43,43,43,1,2,NEW,NEW,,,,,,,,
,,,,,,,,,,,,,,,,TestWords/GA_MU_ZI.wav,,609d952e0aeb66af769d89cb,2021-07-14_16h14.52.149,Agingstudy,2020.2.10,Win32,60,,,,,C,,,,,,,,,,,,,,,2,0,2.0349,0,44,44,44,1,1,OLD,OLD,,,,,,,,
,,,,,,,,,,,,,,,,TestWords/KAY_BA_LI.wav,,609d952e0aeb66af769d89cb,2021-07-14_16h14.52.149,Agingstudy,2020.2.10,Win32,60,,,,,C,,,,,,,,,,,,,,,2,1,0.9112,0,45,45,45,1,2,NEW,SIMILAR,,,,,,,,
,,,,,,,,,,,,,,,,TestWords/MO_PU_DAY.wav,,609d952e0aeb66af769d89cb,2021-07-14_16h14.52.149,Agingstudy,2020.2.10,Win32,60,,,,,C,,,,,,,,,,,,,,,1,0,0.919,0,46,46,46,1,2,NEW,SIMILAR,,,,,,,,
,,,,,,,,,,,,,,,,TestWords/RAY_PA_TI.wav,,609d952e0aeb66af769d89cb,2021-07-14_16h14.52.149,Agingstudy,2020.2.10,Win32,60,,,,,C,,,,,,,,,,,,,,,1,1,0.5724,0,47,47,47,1,1,OLD,OLD,,,,,,,,
,,,,,,,,,,,,,,,,TestWords/KAI_LAY_TA.wav,,609d952e0aeb66af769d89cb,2021-07-14_16h14.52.149,Agingstudy,2020.2.10,Win32,60,,,,,C,,,,,,,,,,,,,,,1,1,0.6885,0,48,48,48,1,1,OLD,OLD,,,,,,,,
,,,,,,,,,,,,,,,,TestWords/WAI_NA_VU.wav,,609d952e0aeb66af769d89cb,2021-07-14_16h14.52.149,Agingstudy,2020.2.10,Win32,60,,,,,C,,,,,,,,,,,,,,,2,1,0.8343,0,49,49,49,1,2,NEW,SIMILAR,,,,,,,,
,,,,,,,,,,,,,,,,TestWords/KO_SU_FAI.wav,,609d952e0aeb66af769d89cb,2021-07-14_16h14.52.149,Agingstudy,2020.2.10,Win32,60,,,,,C,,,,,,,,,,,,,,,1,1,1.1092,0,50,50,50,1,1,OLD,OLD,,,,,,,,
,,,,,,,,,,,,,,,,TestWords/GA_MU_ZI.wav,,609d952e0aeb66af769d89cb,2021-07-14_16h14.52.149,Agingstudy,2020.2.10,Win32,60,,,,,C,,,,,,,,,,,,,,,1,1,0.6198,0,51,51,51,1,1,OLD,OLD,,,,,,,,
,,,,,,,,,,,,,,,,TestWords/NU_CHAY_SO.wav,,609d952e0aeb66af769d89cb,2021-07-14_16h14.52.149,Agingstudy,2020.2.10,Win32,60,,,,,C,,,,,,,,,,,,,,,1,0,1.7007,0,52,52,52,1,2,NEW,NEW,,,,,,,,
,,,,,,,,,,,,,,,,TestWords/DAI_RU_CHI.wav,,609d952e0aeb66af769d89cb,2021-07-14_16h14.52.149,Agingstudy,2020.2.10,Win32,60,,,,,C,,,,,,,,,,,,,,,1,1,0.3739,0,53,53,53,1,1,OLD,OLD,,,,,,,,
,,,,,,,,,,,,,,,,TestWords/VU_NA_WAI.wav,,609d952e0aeb66af769d89cb,2021-07-14_16h14.52.149,Agingstudy,2020.2.10,Win32,60,,,,,C,,,,,,,,,,,,,,,2,1,1.1966,0,54,54,54,1,2,NEW,SIMILAR,,,,,,,,
,,,,,,,,,,,,,,,,TestWords/RAY_PA_TI.wav,,609d952e0aeb66af769d89cb,2021-07-14_16h14.52.149,Agingstudy,2020.2.10,Win32,60,,,,,C,,,,,,,,,,,,,,,1,1,0.4864,0,55,55,55,1,1,OLD,OLD,,,,,,,,
,,,,,,,,,,,,,,,,TestWords/KAI_LAY_TA.wav,,609d952e0aeb66af769d89cb,2021-07-14_16h14.52.149,Agingstudy,2020.2.10,Win32,60,,,,,C,,,,,,,,,,,,,,,1,1,0.3847,0,56,56,56,1,1,OLD,OLD,,,,,,,,
,,,,,,,,,,,,,,,,TestWords/LI_BA_KAY.wav,,609d952e0aeb66af769d89cb,2021-07-14_16h14.52.149,Agingstudy,2020.2.10,Win32,60,,,,,C,,,,,,,,,,,,,,,2,1,0.7013,0,57,57,57,1,2,NEW,SIMILAR,,,,,,,,
,,,,,,,,,,,,,,,,TestWords/GA_MU_ZI.wav,,609d952e0aeb66af769d89cb,2021-07-14_16h14.52.149,Agingstudy,2020.2.10,Win32,60,,,,,C,,,,,,,,,,,,,,,1,1,0.7431,0,58,58,58,1,1,OLD,OLD,,,,,,,,
,,,,,,,,,,,,,,,,TestWords/WAI_RO_JU.wav,,609d952e0aeb66af769d89cb,2021-07-14_16h14.52.149,Agingstudy,2020.2.10,Win32,60,,,,,C,,,,,,,,,,,,,,,2,1,0.9127,0,59,59,59,1,2,NEW,NEW,,,,,,,,
,,,,,,,,,,,,,,,,TestWords/KO_SU_FAI.wav,,609d952e0aeb66af769d89cb,2021-07-14_16h14.52.149,Agingstudy,2020.2.10,Win32,60,,,,,C,,,,,,,,,,,,,,,1,1,1.3848,0,60,60,60,1,1,OLD,OLD,,,,,,,,
,,,,,,,,,,,,,,,,TestWords/DAI_RU_CHI.wav,,609d952e0aeb66af769d89cb,2021-07-14_16h14.52.149,Agingstudy,2020.2.10,Win32,60,,,,,C,,,,,,,,,,,,,,,1,1,0.5111,0,61,61,61,1,1,OLD,OLD,,,,,,,,
,,,,,,,,,,,,,,,,TestWords/VU_WAI_NA.wav,,609d952e0aeb66af769d89cb,2021-07-14_16h14.52.149,Agingstudy,2020.2.10,Win32,60,,,,,C,,,,,,,,,,,,,,,2,1,0.8212,0,62,62,62,1,2,NEW,SIMILAR,,,,,,,,
,,,,,,,,,,,,,,,,TestWords/RAY_PA_TI.wav,,609d952e0aeb66af769d89cb,2021-07-14_16h14.52.149,Agingstudy,2020.2.10,Win32,60,,,,,C,,,,,,,,,,,,,,,1,1,0.6309,0,63,63,63,1,1,OLD,OLD,,,,,,,,
,,,,,,,,,,,,,,,,TestWords/KAI_LAY_TA.wav,,609d952e0aeb66af769d89cb,2021-07-14_16h14.52.149,Agingstudy,2020.2.10,Win32,60,,,,,C,,,,,,,,,,,,,,,1,1,0.8865,0,64,64,64,1,1,OLD,OLD,,,,,,,,
,,,,,,,,,,,,,,,,TestWords/GA_MU_ZI.wav,,609d952e0aeb66af769d89cb,2021-07-14_16h14.52.149,Agingstudy,2020.2.10,Win32,60,,,,,C,,,,,,,,,,,,,,,1,1,0.9058,0,65,65,65,1,1,OLD,OLD,,,,,,,,
,,,,,,,,,,,,,,,,TestWords/BA_LI_KAY.wav,,609d952e0aeb66af769d89cb,2021-07-14_16h14.52.149,Agingstudy,2020.2.10,Win32,60,,,,,C,,,,,,,,,,,,,,,2,1,0.8037,0,66,66,66,1,2,NEW,SIMILAR,,,,,,,,
,,,,,,,,,,,,,,,,TestWords/NA_VU_WAI.wav,,609d952e0aeb66af769d89cb,2021-07-14_16h14.52.149,Agingstudy,2020.2.10,Win32,60,,,,,C,,,,,,,,,,,,,,,2,1,1.2681,0,67,67,67,1,2,NEW,SIMILAR,,,,,,,,
,,,,,,,,,,,,,,,,TestWords/KO_SU_FAI.wav,,609d952e0aeb66af769d89cb,2021-07-14_16h14.52.149,Agingstudy,2020.2.10,Win32,60,,,,,C,,,,,,,,,,,,,,,1,1,1.2702,0,68,68,68,1,1,OLD,OLD,,,,,,,,
,,,,,,,,,,,,,,,,TestWords/RAI_ZO_FU.wav,,609d952e0aeb66af769d89cb,2021-07-14_16h14.52.149,Agingstudy,2020.2.10,Win32,60,,,,,C,,,,,,,,,,,,,,,2,1,0.9534,0,69,69,69,1,2,NEW,NEW,,,,,,,,
,,,,,,,,,,,,,,,,TestWords/DAI_RU_CHI.wav,,609d952e0aeb66af769d89cb,2021-07-14_16h14.52.149,Agingstudy,2020.2.10,Win32,60,,,,,C,,,,,,,,,,,,,,,1,1,0.6422,0,70,70,70,1,1,OLD,OLD,,,,,,,,
,,,,,,,,,,,,,,,,TestWords/RAY_PA_TI.wav,,609d952e0aeb66af769d89cb,2021-07-14_16h14.52.149,Agingstudy,2020.2.10,Win32,60,,,,,C,,,,,,,,,,,,,,,1,1,0.6349,0,71,71,71,1,1,OLD,OLD,,,,,,,,
,,,,,,,,,,,,,,,,TestWords/LI_KAY_BA.wav,,609d952e0aeb66af769d89cb,2021-07-14_16h14.52.149,Agingstudy,2020.2.10,Win32,60,,,,,C,,,,,,,,,,,,,,,2,1,0.9863,0,72,72,72,1,2,NEW,SIMILAR,,,,,,,,
,,,,,,,,,,,,,,,,TestWords/KAI_LAY_TA.wav,,609d952e0aeb66af769d89cb,2021-07-14_16h14.52.149,Agingstudy,2020.2.10,Win32,60,,,,,C,,,,,,,,,,,,,,,1,1,0.7396,0,73,73,73,1,1,OLD,OLD,,,,,,,,
,,,,,,,,,,,,,,,,TestWords/GA_MU_ZI.wav,,609d952e0aeb66af769d89cb,2021-07-14_16h14.52.149,Agingstudy,2020.2.10,Win32,60,,,,,C,,,,,,,,,,,,,,,1,1,0.9028,0,74,74,74,1,1,OLD,OLD,,,,,,,,
,,,,,,,,,,,,,,,,TestWords/NA_WAI_VU.wav,,609d952e0aeb66af769d89cb,2021-07-14_16h14.52.149,Agingstudy,2020.2.10,Win32,60,,,,,C,,,,,,,,,,,,,,,1,0,1.2734,0,75,75,75,1,2,NEW,SIMILAR,,,,,,,,
,,,,,,,,,,,,,,,,TestWords/KO_SU_FAI.wav,,609d952e0aeb66af769d89cb,2021-07-14_16h14.52.149,Agingstudy,2020.2.10,Win32,60,,,,,C,,,,,,,,,,,,,,,1,1,1.0956,0,76,76,76,1,1,OLD,OLD,,,,,,,,
,,,,,,,,,,,,,,,,TestWords/ZO_RAI_FU.wav,,609d952e0aeb66af769d89cb,2021-07-14_16h14.52.149,Agingstudy,2020.2.10,Win32,60,,,,,C,,,,,,,,,,,,,,,2,1,0.8781,0,77,77,77,1,2,NEW,SIMILAR,,,,,,,,
,,,,,,,,,,,,,,,,TestWords/RAY_PA_TI.wav,,609d952e0aeb66af769d89cb,2021-07-14_16h14.52.149,Agingstudy,2020.2.10,Win32,60,,,,,C,,,,,,,,,,,,,,,1,1,0.7767,0,78,78,78,1,1,OLD,OLD,,,,,,,,
,,,,,,,,,,,,,,,,TestWords/KAI_LAY_TA.wav,,609d952e0aeb66af769d89cb,2021-07-14_16h14.52.149,Agingstudy,2020.2.10,Win32,60,,,,,C,,,,,,,,,,,,,,,1,1,0.7122,0,79,79,79,1,1,OLD,OLD,,,,,,,,
,,,,,,,,,,,,,,,,TestWords/GA_MU_ZI.wav,,609d952e0aeb66af769d89cb,2021-07-14_16h14.52.149,Agingstudy,2020.2.10,Win32,60,,,,,C,,,,,,,,,,,,,,,1,1,0.7179,0,80,80,80,1,1,OLD,OLD,,,,,,,,
,,,,,,,,,,,,,,,,TestWords/DA_CHU_VAI.wav,,609d952e0aeb66af769d89cb,2021-07-14_16h14.52.149,Agingstudy,2020.2.10,Win32,60,,,,,C,,,,,,,,,,,,,,,2,1,0.8251,0,81,81,81,1,2,NEW,NEW,,,,,,,,
,,,,,,,,,,,,,,,,TestWords/DAI_RU_CHI.wav,,609d952e0aeb66af769d89cb,2021-07-14_16h14.52.149,Agingstudy,2020.2.10,Win32,60,,,,,C,,,,,,,,,,,,,,,1,1,0.5715,0,82,82,82,1,1,OLD,OLD,,,,,,,,
,,,,,,,,,,,,,,,,TestWords/FU_RAI_ZO.wav,,609d952e0aeb66af769d89cb,2021-07-14_16h14.52.149,Agingstudy,2020.2.10,Win32,60,,,,,C,,,,,,,,,,,,,,,2,1,0.8845,0,83,83,83,1,2,NEW,SIMILAR,,,,,,,,
,,,,,,,,,,,,,,,,TestWords/KO_SU_FAI.wav,,609d952e0aeb66af769d89cb,2021-07-14_16h14.52.149,Agingstudy,2020.2.10,Win32,60,,,,,C,,,,,,,,,,,,,,,2,0,1.2279,0,84,84,84,1,1,OLD,OLD,,,,,,,,
,,,,,,,,,,,,,,,,TestWords/RAY_PA_TI.wav,,609d952e0aeb66af769d89cb,2021-07-14_16h14.52.149,Agingstudy,2020.2.10,Win32,60,,,,,C,,,,,,,,,,,,,,,1,1,0.5781,0,85,85,85,1,1,OLD,OLD,,,,,,,,
,,,,,,,,,,,,,,,,TestWords/DAI_RU_CHI.wav,,609d952e0aeb66af769d89cb,2021-07-14_16h14.52.149,Agingstudy,2020.2.10,Win32,60,,,,,C,,,,,,,,,,,,,,,1,1,0.7218,0,86,86,86,1,1,OLD,OLD,,,,,,,,
,,,,,,,,,,,,,,,,TestWords/PAI_LU_WA.wav,,609d952e0aeb66af769d89cb,2021-07-14_16h14.52.149,Agingstudy,2020.2.10,Win32,60,,,,,C,,,,,,,,,,,,,,,2,1,0.8973,0,87,87,87,1,2,NEW,NEW,,,,,,,,
,,,,,,,,,,,,,,,,TestWords/GA_MU_ZI.wav,,609d952e0aeb66af769d89cb,2021-07-14_16h14.52.149,Agingstudy,2020.2.10,Win32,60,,,,,C,,,,,,,,,,,,,,,1,1,0.7629,0,88,88,88,1,1,OLD,OLD,,,,,,,,
,,,,,,,,,,,,,,,,TestWords/FU_ZO_RAI.wav,,609d952e0aeb66af769d89cb,2021-07-14_16h14.52.149,Agingstudy,2020.2.10,Win32,60,,,,,C,,,,,,,,,,,,,,,2,1,0.9212,0,89,89,89,1,2,NEW,SIMILAR,,,,,,,,
,,,,,,,,,,,,,,,,TestWords/RAY_PA_TI.wav,,609d952e0aeb66af769d89cb,2021-07-14_16h14.52.149,Agingstudy,2020.2.10,Win32,60,,,,,C,,,,,,,,,,,,,,,1,1,0.6257,0,90,90,90,1,1,OLD,OLD,,,,,,,,
,,,,,,,,,,,,,,,,TestWords/DAI_RU_CHI.wav,,609d952e0aeb66af769d89cb,2021-07-14_16h14.52.149,Agingstudy,2020.2.10,Win32,60,,,,,C,,,,,,,,,,,,,,,1,1,0.6674,0,91,91,91,1,1,OLD,OLD,,,,,,,,
,,,,,,,,,,,,,,,,TestWords/LA_ZAY_CHAI.wav,,609d952e0aeb66af769d89cb,2021-07-14_16h14.52.149,Agingstudy,2020.2.10,Win32,60,,,,,C,,,,,,,,,,,,,,,2,1,0.89,0,92,92,92,1,2,NEW,NEW,,,,,,,,
,,,,,,,,,,,,,,,,TestWords/GA_MU_ZI.wav,,609d952e0aeb66af769d89cb,2021-07-14_16h14.52.149,Agingstudy,2020.2.10,Win32,60,,,,,C,,,,,,,,,,,,,,,1,1,0.9374,0,93,93,93,1,1,OLD,OLD,,,,,,,,
,,,,,,,,,,,,,,,,TestWords/RAI_FU_ZO.wav,,609d952e0aeb66af769d89cb,2021-07-14_16h14.52.149,Agingstudy,2020.2.10,Win32,60,,,,,C,,,,,,,,,,,,,,,2,1,1.3716,0,94,94,94,1,2,NEW,SIMILAR,,,,,,,,
,,,,,,,,,,,,,,,,TestWords/GU_CHAI_PI.wav,,609d952e0aeb66af769d89cb,2021-07-14_16h14.52.149,Agingstudy,2020.2.10,Win32,60,,,,,C,,,,,,,,,,,,,,,2,1,1.0863,0,95,95,95,1,2,NEW,NEW,,,,,,,,
,,,,,,,,,,,,,,,,TestWords/HI_NAY_VA.wav,,609d952e0aeb66af769d89cb,2021-07-14_16h14.52.149,Agingstudy,2020.2.10,Win32,60,,,,,C,,,,,,,,,,,,,,,2,1,0.8189,0,96,96,96,1,2,NEW,NEW,,,,,,,,
,,,,,,,,,,,,,,,,TestWords/GA_MU_ZI.wav,,609d952e0aeb66af769d89cb,2021-07-14_16h14.52.149,Agingstudy,2020.2.10,Win32,60,,,,,C,,,,,,,,,,,,,,,1,1,0.5623,0,97,97,97,1,1,OLD,OLD,,,,,,,,
,,,,,,,,,,,,,,,,TestWords/SI_VAI_CHU.wav,,609d952e0aeb66af769d89cb,2021-07-14_16h14.52.149,Agingstudy,2020.2.10,Win32,60,,,,,C,,,,,,,,,,,,,,,1,0,1.6361,0,98,98,98,1,2,NEW,NEW,,,,,,,,
,,,,,,,,,,,,,,,,TestWords/ZO_FU_RAI.wav,,609d952e0aeb66af769d89cb,2021-07-14_16h14.52.149,Agingstudy,2020.2.10,Win32,60,,,,,C,,,,,,,,,,,,,,,2,1,1.5509,0,99,99,99,1,2,NEW,SIMILAR,,,,,,,,
,,,,,,,,,,,,,,,,,,609d952e0aeb66af769d89cb,2021-07-14_16h14.52.149,Agingstudy,2020.2.10,Win32,60,,,,,,,,,,,,,,,,,,,,,,,,,,,,,,,0,0,0,0,1,,,
,,,,,,,,,,,,,,,,,,609d952e0aeb66af769d89cb,2021-07-14_16h14.52.149,Agingstudy,2020.2.10,Win32,60,,,,,,,,,,,,,,,,,,,,,,,,,,,,,,,,,,,,return,17.9142,
