Welcome0Continue.keys,Welcome0Continue.rt,SoundCheckBegin.keys,SoundCheckBegin.rt,SoundCheckEndKey.keys,SoundCheckEndKey.rt,HeadphoneContinueKey.keys,HeadphoneContinueKey.rt,CheckResp.keys,CheckResp.corr,CheckResp.rt,HeadphoneLoop.thisRepN,HeadphoneLoop.thisTrialN,HeadphoneLoop.thisN,HeadphoneLoop.thisIndex,HeadphoneLoop.ran,File,Correct,participant,date,expName,psychopyVersion,OS,frameRate,STUDY_ID,SESSION_ID,ContinueKey8.keys,ContinueKey8.rt,MSTWelcomeContKey.keys,MSTWelcomeContKey.rt,Condition,MSTTrainIntroKey.keys,MSTTrainIntroKey.rt,MSTTrainKeys.keys,MSTTrainKeys.corr,MSTTrainKeys.rt,MSTTrainLoop.thisRepN,MSTTrainLoop.thisTrialN,MSTTrainLoop.thisN,MSTTrainLoop.thisIndex,MSTTrainLoop.ran,SoundFile,Type,MSTTestBeginKey.keys,MSTTestBeginKey.rt,MST_resp.keys,MST_resp.corr,MST_resp.rt,MSTPlayLoop.thisRepN,MSTPlayLoop.thisTrialN,MSTPlayLoop.thisN,MSTPlayLoop.thisIndex,MSTPlayLoop.ran,WordCorrect,Correct_type,WordType,MSTLoop.thisRepN,MSTLoop.thisTrialN,MSTLoop.thisN,MSTLoop.thisIndex,MSTLoop.ran,EndAllKey.keys,EndAllKey.rt,FeedbackResp.text
space,30.4531,space,0.4127,space,4.5622,space,16.699,1,1,2.9307,0,0,0,1,1,Headphone/t1_2.wav,1,60a7bf0ff7febd821afb6520,2021-07-11_22h41.12.140,Agingstudy_mst,2020.2.10,MacIntel,60,60e8550594adb1982c6cb1b5,60eb5725be08fc4e0a063886,,,,,,,,,,,,,,,,,,,,,,,,,,,,,,,,,,,,,,
,,,,,,,,3,1,3.6833,0,1,1,5,1,Headphone/t3_2.wav,3,60a7bf0ff7febd821afb6520,2021-07-11_22h41.12.140,Agingstudy_mst,2020.2.10,MacIntel,60,60e8550594adb1982c6cb1b5,60eb5725be08fc4e0a063886,,,,,,,,,,,,,,,,,,,,,,,,,,,,,,,,,,,,,,
,,,,,,,,2,1,0.2852,0,2,2,2,1,Headphone/t2_1.wav,2,60a7bf0ff7febd821afb6520,2021-07-11_22h41.12.140,Agingstudy_mst,2020.2.10,MacIntel,60,60e8550594adb1982c6cb1b5,60eb5725be08fc4e0a063886,,,,,,,,,,,,,,,,,,,,,,,,,,,,,,,,,,,,,,
,,,,,,,,1,1,0.3335,0,3,3,0,1,Headphone/t1_1.wav,1,60a7bf0ff7febd821afb6520,2021-07-11_22h41.12.140,Agingstudy_mst,2020.2.10,MacIntel,60,60e8550594adb1982c6cb1b5,60eb5725be08fc4e0a063886,,,,,,,,,,,,,,,,,,,,,,,,,,,,,,,,,,,,,,
,,,,,,,,2,1,0.2341,0,4,4,3,1,Headphone/t2_2.wav,2,60a7bf0ff7febd821afb6520,2021-07-11_22h41.12.140,Agingstudy_mst,2020.2.10,MacIntel,60,60e8550594adb1982c6cb1b5,60eb5725be08fc4e0a063886,,,,,,,,,,,,,,,,,,,,,,,,,,,,,,,,,,,,,,
,,,,,,,,3,1,0.1732,0,5,5,4,1,Headphone/t3_1.wav,3,60a7bf0ff7febd821afb6520,2021-07-11_22h41.12.140,Agingstudy_mst,2020.2.10,MacIntel,60,60e8550594adb1982c6cb1b5,60eb5725be08fc4e0a063886,,,,,,,,,,,,,,,,,,,,,,,,,,,,,,,,,,,,,,
,,,,,,,,,,,,,,,,,2,60a7bf0ff7febd821afb6520,2021-07-11_22h41.12.140,Agingstudy_mst,2020.2.10,MacIntel,60,60e8550594adb1982c6cb1b5,60eb5725be08fc4e0a063886,space,13.2022,space,17.0327,1,space,3.5784,2,1,6.8868,0,0,0,0,1,Training/FO_YI_LAY.wav,NEW,,,,,,,,,,,,,,,,,,,,,
,,,,,,,,,,,,,,,,,1,60a7bf0ff7febd821afb6520,2021-07-11_22h41.12.140,Agingstudy_mst,2020.2.10,MacIntel,60,60e8550594adb1982c6cb1b5,60eb5725be08fc4e0a063886,,,,,,,,1,1,0.8326,0,1,1,1,1,Training/FO_YI_LAY.wav,OLD,,,,,,,,,,,,,,,,,,,,,
,,,,,,,,,,,,,,,,,2,60a7bf0ff7febd821afb6520,2021-07-11_22h41.12.140,Agingstudy_mst,2020.2.10,MacIntel,60,60e8550594adb1982c6cb1b5,60eb5725be08fc4e0a063886,,,,,,,,2,1,0.9652,0,2,2,2,1,Training/YO_BU_JAY.wav,NEW,,,,,,,,,,,,,,,,,,,,,
,,,,,,,,,,,,,,,,,2,60a7bf0ff7febd821afb6520,2021-07-11_22h41.12.140,Agingstudy_mst,2020.2.10,MacIntel,60,60e8550594adb1982c6cb1b5,60eb5725be08fc4e0a063886,,,,,,,,2,1,0.2996,0,3,3,3,1,Training/JAY_YO_BU.wav,SIMILAR,,,,,,,,,,,,,,,,,,,,,
,,,,,,,,,,,,,,,,,1,60a7bf0ff7febd821afb6520,2021-07-11_22h41.12.140,Agingstudy_mst,2020.2.10,MacIntel,60,60e8550594adb1982c6cb1b5,60eb5725be08fc4e0a063886,,,,,,,,1,1,0.3836,0,4,4,4,1,Training/FO_YI_LAY.wav,OLD,,,,,,,,,,,,,,,,,,,,,
,,,,,,,,,,,,,,,,TestWords/CHU_LA_PAY.wav,,60a7bf0ff7febd821afb6520,2021-07-11_22h41.12.140,Agingstudy_mst,2020.2.10,MacIntel,60,60e8550594adb1982c6cb1b5,60eb5725be08fc4e0a063886,,,,,D,,,,,,,,,,,,,space,2.1722,2,1,2.2717,0,0,0,0,1,2,NEW,NEW,,,,,,,,
,,,,,,,,,,,,,,,,TestWords/FI_GU_CHA.wav,,60a7bf0ff7febd821afb6520,2021-07-11_22h41.12.140,Agingstudy_mst,2020.2.10,MacIntel,60,60e8550594adb1982c6cb1b5,60eb5725be08fc4e0a063886,,,,,D,,,,,,,,,,,,,,,2,1,0.2855,0,1,1,1,1,2,NEW,NEW,,,,,,,,
,,,,,,,,,,,,,,,,TestWords/RAI_ZO_FU.wav,,60a7bf0ff7febd821afb6520,2021-07-11_22h41.12.140,Agingstudy_mst,2020.2.10,MacIntel,60,60e8550594adb1982c6cb1b5,60eb5725be08fc4e0a063886,,,,,D,,,,,,,,,,,,,,,2,1,0.3496,0,2,2,2,1,2,NEW,NEW,,,,,,,,
,,,,,,,,,,,,,,,,TestWords/DAI_RU_CHI.wav,,60a7bf0ff7febd821afb6520,2021-07-11_22h41.12.140,Agingstudy_mst,2020.2.10,MacIntel,60,60e8550594adb1982c6cb1b5,60eb5725be08fc4e0a063886,,,,,D,,,,,,,,,,,,,,,2,1,0.3013,0,3,3,3,1,2,NEW,NEW,,,,,,,,
,,,,,,,,,,,,,,,,TestWords/GA_MU_ZI.wav,,60a7bf0ff7febd821afb6520,2021-07-11_22h41.12.140,Agingstudy_mst,2020.2.10,MacIntel,60,60e8550594adb1982c6cb1b5,60eb5725be08fc4e0a063886,,,,,D,,,,,,,,,,,,,,,1,0,0.7172,0,4,4,4,1,2,NEW,NEW,,,,,,,,
,,,,,,,,,,,,,,,,TestWords/DA_CHU_VAI.wav,,60a7bf0ff7febd821afb6520,2021-07-11_22h41.12.140,Agingstudy_mst,2020.2.10,MacIntel,60,60e8550594adb1982c6cb1b5,60eb5725be08fc4e0a063886,,,,,D,,,,,,,,,,,,,,,2,1,1.7003,0,5,5,5,1,2,NEW,NEW,,,,,,,,
,,,,,,,,,,,,,,,,TestWords/ZO_RAI_FU.wav,,60a7bf0ff7febd821afb6520,2021-07-11_22h41.12.140,Agingstudy_mst,2020.2.10,MacIntel,60,60e8550594adb1982c6cb1b5,60eb5725be08fc4e0a063886,,,,,D,,,,,,,,,,,,,,,2,1,1.0046,0,6,6,6,1,2,NEW,SIMILAR,,,,,,,,
,,,,,,,,,,,,,,,,TestWords/BA_KAY_LI.wav,,60a7bf0ff7febd821afb6520,2021-07-11_22h41.12.140,Agingstudy_mst,2020.2.10,MacIntel,60,60e8550594adb1982c6cb1b5,60eb5725be08fc4e0a063886,,,,,D,,,,,,,,,,,,,,,2,1,0.7014,0,7,7,7,1,2,NEW,NEW,,,,,,,,
,,,,,,,,,,,,,,,,TestWords/VAI_HO_LA.wav,,60a7bf0ff7febd821afb6520,2021-07-11_22h41.12.140,Agingstudy_mst,2020.2.10,MacIntel,60,60e8550594adb1982c6cb1b5,60eb5725be08fc4e0a063886,,,,,D,,,,,,,,,,,,,,,2,1,1.5872,0,8,8,8,1,2,NEW,NEW,,,,,,,,
,,,,,,,,,,,,,,,,TestWords/DAI_RU_CHI.wav,,60a7bf0ff7febd821afb6520,2021-07-11_22h41.12.140,Agingstudy_mst,2020.2.10,MacIntel,60,60e8550594adb1982c6cb1b5,60eb5725be08fc4e0a063886,,,,,D,,,,,,,,,,,,,,,2,0,1.9556,0,9,9,9,1,1,OLD,OLD,,,,,,,,
,,,,,,,,,,,,,,,,TestWords/RAY_PA_TI.wav,,60a7bf0ff7febd821afb6520,2021-07-11_22h41.12.140,Agingstudy_mst,2020.2.10,MacIntel,60,60e8550594adb1982c6cb1b5,60eb5725be08fc4e0a063886,,,,,D,,,,,,,,,,,,,,,2,1,1.9857,0,10,10,10,1,2,NEW,NEW,,,,,,,,
,,,,,,,,,,,,,,,,TestWords/NO_WA_BAY.wav,,60a7bf0ff7febd821afb6520,2021-07-11_22h41.12.140,Agingstudy_mst,2020.2.10,MacIntel,60,60e8550594adb1982c6cb1b5,60eb5725be08fc4e0a063886,,,,,D,,,,,,,,,,,,,,,1,0,2.1176,0,11,11,11,1,2,NEW,NEW,,,,,,,,
,,,,,,,,,,,,,,,,TestWords/GA_MU_ZI.wav,,60a7bf0ff7febd821afb6520,2021-07-11_22h41.12.140,Agingstudy_mst,2020.2.10,MacIntel,60,60e8550594adb1982c6cb1b5,60eb5725be08fc4e0a063886,,,,,D,,,,,,,,,,,,,,,1,1,0.3332,0,12,12,12,1,1,OLD,OLD,,,,,,,,
,,,,,,,,,,,,,,,,TestWords/WAI_VU_NA.wav,,60a7bf0ff7febd821afb6520,2021-07-11_22h41.12.140,Agingstudy_mst,2020.2.10,MacIntel,60,60e8550594adb1982c6cb1b5,60eb5725be08fc4e0a063886,,,,,D,,,,,,,,,,,,,,,2,1,1.2364,0,13,13,13,1,2,NEW,NEW,,,,,,,,
,,,,,,,,,,,,,,,,TestWords/KAY_LI_BA.wav,,60a7bf0ff7febd821afb6520,2021-07-11_22h41.12.140,Agingstudy_mst,2020.2.10,MacIntel,60,60e8550594adb1982c6cb1b5,60eb5725be08fc4e0a063886,,,,,D,,,,,,,,,,,,,,,2,1,2.1852,0,14,14,14,1,2,NEW,SIMILAR,,,,,,,,
,,,,,,,,,,,,,,,,TestWords/FU_RAI_ZO.wav,,60a7bf0ff7febd821afb6520,2021-07-11_22h41.12.140,Agingstudy_mst,2020.2.10,MacIntel,60,60e8550594adb1982c6cb1b5,60eb5725be08fc4e0a063886,,,,,D,,,,,,,,,,,,,,,2,1,1.9015,0,15,15,15,1,2,NEW,SIMILAR,,,,,,,,
,,,,,,,,,,,,,,,,TestWords/KAI_LAY_TA.wav,,60a7bf0ff7febd821afb6520,2021-07-11_22h41.12.140,Agingstudy_mst,2020.2.10,MacIntel,60,60e8550594adb1982c6cb1b5,60eb5725be08fc4e0a063886,,,,,D,,,,,,,,,,,,,,,2,1,1.0006,0,16,16,16,1,2,NEW,NEW,,,,,,,,
,,,,,,,,,,,,,,,,TestWords/RAY_PA_TI.wav,,60a7bf0ff7febd821afb6520,2021-07-11_22h41.12.140,Agingstudy_mst,2020.2.10,MacIntel,60,60e8550594adb1982c6cb1b5,60eb5725be08fc4e0a063886,,,,,D,,,,,,,,,,,,,,,1,1,0.6376,0,17,17,17,1,1,OLD,OLD,,,,,,,,
,,,,,,,,,,,,,,,,TestWords/DAI_RU_CHI.wav,,60a7bf0ff7febd821afb6520,2021-07-11_22h41.12.140,Agingstudy_mst,2020.2.10,MacIntel,60,60e8550594adb1982c6cb1b5,60eb5725be08fc4e0a063886,,,,,D,,,,,,,,,,,,,,,1,1,0.3052,0,18,18,18,1,1,OLD,OLD,,,,,,,,
,,,,,,,,,,,,,,,,TestWords/WAI_NA_VU.wav,,60a7bf0ff7febd821afb6520,2021-07-11_22h41.12.140,Agingstudy_mst,2020.2.10,MacIntel,60,60e8550594adb1982c6cb1b5,60eb5725be08fc4e0a063886,,,,,D,,,,,,,,,,,,,,,2,1,0.4021,0,19,19,19,1,2,NEW,SIMILAR,,,,,,,,
,,,,,,,,,,,,,,,,TestWords/GA_MU_ZI.wav,,60a7bf0ff7febd821afb6520,2021-07-11_22h41.12.140,Agingstudy_mst,2020.2.10,MacIntel,60,60e8550594adb1982c6cb1b5,60eb5725be08fc4e0a063886,,,,,D,,,,,,,,,,,,,,,2,0,0.6319,0,20,20,20,1,1,OLD,OLD,,,,,,,,
,,,,,,,,,,,,,,,,TestWords/KAY_BA_LI.wav,,60a7bf0ff7febd821afb6520,2021-07-11_22h41.12.140,Agingstudy_mst,2020.2.10,MacIntel,60,60e8550594adb1982c6cb1b5,60eb5725be08fc4e0a063886,,,,,D,,,,,,,,,,,,,,,1,0,0.6186,0,21,21,21,1,2,NEW,SIMILAR,,,,,,,,
,,,,,,,,,,,,,,,,TestWords/KAI_LAY_TA.wav,,60a7bf0ff7febd821afb6520,2021-07-11_22h41.12.140,Agingstudy_mst,2020.2.10,MacIntel,60,60e8550594adb1982c6cb1b5,60eb5725be08fc4e0a063886,,,,,D,,,,,,,,,,,,,,,1,1,0.8553,0,22,22,22,1,1,OLD,OLD,,,,,,,,
,,,,,,,,,,,,,,,,TestWords/FU_ZO_RAI.wav,,60a7bf0ff7febd821afb6520,2021-07-11_22h41.12.140,Agingstudy_mst,2020.2.10,MacIntel,60,60e8550594adb1982c6cb1b5,60eb5725be08fc4e0a063886,,,,,D,,,,,,,,,,,,,,,2,1,2.1841,0,23,23,23,1,2,NEW,SIMILAR,,,,,,,,
,,,,,,,,,,,,,,,,TestWords/RAY_PA_TI.wav,,60a7bf0ff7febd821afb6520,2021-07-11_22h41.12.140,Agingstudy_mst,2020.2.10,MacIntel,60,60e8550594adb1982c6cb1b5,60eb5725be08fc4e0a063886,,,,,D,,,,,,,,,,,,,,,1,1,0.3942,0,24,24,24,1,1,OLD,OLD,,,,,,,,
,,,,,,,,,,,,,,,,TestWords/DAI_RU_CHI.wav,,60a7bf0ff7febd821afb6520,2021-07-11_22h41.12.140,Agingstudy_mst,2020.2.10,MacIntel,60,60e8550594adb1982c6cb1b5,60eb5725be08fc4e0a063886,,,,,D,,,,,,,,,,,,,,,1,1,0.4554,0,25,25,25,1,1,OLD,OLD,,,,,,,,
,,,,,,,,,,,,,,,,TestWords/VU_NA_WAI.wav,,60a7bf0ff7febd821afb6520,2021-07-11_22h41.12.140,Agingstudy_mst,2020.2.10,MacIntel,60,60e8550594adb1982c6cb1b5,60eb5725be08fc4e0a063886,,,,,D,,,,,,,,,,,,,,,2,1,1.1827,0,26,26,26,1,2,NEW,SIMILAR,,,,,,,,
,,,,,,,,,,,,,,,,TestWords/RAI_FU_ZO.wav,,60a7bf0ff7febd821afb6520,2021-07-11_22h41.12.140,Agingstudy_mst,2020.2.10,MacIntel,60,60e8550594adb1982c6cb1b5,60eb5725be08fc4e0a063886,,,,,D,,,,,,,,,,,,,,,1,0,4.422,0,27,27,27,1,2,NEW,SIMILAR,,,,,,,,
,,,,,,,,,,,,,,,,TestWords/GA_MU_ZI.wav,,60a7bf0ff7febd821afb6520,2021-07-11_22h41.12.140,Agingstudy_mst,2020.2.10,MacIntel,60,60e8550594adb1982c6cb1b5,60eb5725be08fc4e0a063886,,,,,D,,,,,,,,,,,,,,,1,1,0.1507,0,28,28,28,1,1,OLD,OLD,,,,,,,,
,,,,,,,,,,,,,,,,TestWords/LI_BA_KAY.wav,,60a7bf0ff7febd821afb6520,2021-07-11_22h41.12.140,Agingstudy_mst,2020.2.10,MacIntel,60,60e8550594adb1982c6cb1b5,60eb5725be08fc4e0a063886,,,,,D,,,,,,,,,,,,,,,2,1,1.1623,0,29,29,29,1,2,NEW,SIMILAR,,,,,,,,
,,,,,,,,,,,,,,,,TestWords/KAI_LAY_TA.wav,,60a7bf0ff7febd821afb6520,2021-07-11_22h41.12.140,Agingstudy_mst,2020.2.10,MacIntel,60,60e8550594adb1982c6cb1b5,60eb5725be08fc4e0a063886,,,,,D,,,,,,,,,,,,,,,2,0,0.9858,0,30,30,30,1,1,OLD,OLD,,,,,,,,
,,,,,,,,,,,,,,,,TestWords/RAY_PA_TI.wav,,60a7bf0ff7febd821afb6520,2021-07-11_22h41.12.140,Agingstudy_mst,2020.2.10,MacIntel,60,60e8550594adb1982c6cb1b5,60eb5725be08fc4e0a063886,,,,,D,,,,,,,,,,,,,,,1,1,0.5514,0,31,31,31,1,1,OLD,OLD,,,,,,,,
,,,,,,,,,,,,,,,,TestWords/VU_WAI_NA.wav,,60a7bf0ff7febd821afb6520,2021-07-11_22h41.12.140,Agingstudy_mst,2020.2.10,MacIntel,60,60e8550594adb1982c6cb1b5,60eb5725be08fc4e0a063886,,,,,D,,,,,,,,,,,,,,,2,1,2.1701,0,32,32,32,1,2,NEW,SIMILAR,,,,,,,,
,,,,,,,,,,,,,,,,TestWords/DAI_RU_CHI.wav,,60a7bf0ff7febd821afb6520,2021-07-11_22h41.12.140,Agingstudy_mst,2020.2.10,MacIntel,60,60e8550594adb1982c6cb1b5,60eb5725be08fc4e0a063886,,,,,D,,,,,,,,,,,,,,,1,1,0.3858,0,33,33,33,1,1,OLD,OLD,,,,,,,,
,,,,,,,,,,,,,,,,TestWords/ZO_FU_RAI.wav,,60a7bf0ff7febd821afb6520,2021-07-11_22h41.12.140,Agingstudy_mst,2020.2.10,MacIntel,60,60e8550594adb1982c6cb1b5,60eb5725be08fc4e0a063886,,,,,D,,,,,,,,,,,,,,,1,0,0.5831,0,34,34,34,1,2,NEW,SIMILAR,,,,,,,,
,,,,,,,,,,,,,,,,TestWords/BA_LI_KAY.wav,,60a7bf0ff7febd821afb6520,2021-07-11_22h41.12.140,Agingstudy_mst,2020.2.10,MacIntel,60,60e8550594adb1982c6cb1b5,60eb5725be08fc4e0a063886,,,,,D,,,,,,,,,,,,,,,1,0,0.2361,0,35,35,35,1,2,NEW,SIMILAR,,,,,,,,
,,,,,,,,,,,,,,,,TestWords/KO_SU_FAI.wav,,60a7bf0ff7febd821afb6520,2021-07-11_22h41.12.140,Agingstudy_mst,2020.2.10,MacIntel,60,60e8550594adb1982c6cb1b5,60eb5725be08fc4e0a063886,,,,,D,,,,,,,,,,,,,,,2,1,1.0721,0,36,36,36,1,2,NEW,NEW,,,,,,,,
,,,,,,,,,,,,,,,,TestWords/KAI_LAY_TA.wav,,60a7bf0ff7febd821afb6520,2021-07-11_22h41.12.140,Agingstudy_mst,2020.2.10,MacIntel,60,60e8550594adb1982c6cb1b5,60eb5725be08fc4e0a063886,,,,,D,,,,,,,,,,,,,,,1,1,0.9541,0,37,37,37,1,1,OLD,OLD,,,,,,,,
,,,,,,,,,,,,,,,,TestWords/RAY_PA_TI.wav,,60a7bf0ff7febd821afb6520,2021-07-11_22h41.12.140,Agingstudy_mst,2020.2.10,MacIntel,60,60e8550594adb1982c6cb1b5,60eb5725be08fc4e0a063886,,,,,D,,,,,,,,,,,,,,,1,1,0.9505,0,38,38,38,1,1,OLD,OLD,,,,,,,,
,,,,,,,,,,,,,,,,TestWords/GA_MU_ZI.wav,,60a7bf0ff7febd821afb6520,2021-07-11_22h41.12.140,Agingstudy_mst,2020.2.10,MacIntel,60,60e8550594adb1982c6cb1b5,60eb5725be08fc4e0a063886,,,,,D,,,,,,,,,,,,,,,1,1,0.3661,0,39,39,39,1,1,OLD,OLD,,,,,,,,
,,,,,,,,,,,,,,,,TestWords/NA_VU_WAI.wav,,60a7bf0ff7febd821afb6520,2021-07-11_22h41.12.140,Agingstudy_mst,2020.2.10,MacIntel,60,60e8550594adb1982c6cb1b5,60eb5725be08fc4e0a063886,,,,,D,,,,,,,,,,,,,,,2,1,1.9702,0,40,40,40,1,2,NEW,SIMILAR,,,,,,,,
,,,,,,,,,,,,,,,,TestWords/DAI_RU_CHI.wav,,60a7bf0ff7febd821afb6520,2021-07-11_22h41.12.140,Agingstudy_mst,2020.2.10,MacIntel,60,60e8550594adb1982c6cb1b5,60eb5725be08fc4e0a063886,,,,,D,,,,,,,,,,,,,,,1,1,0.4027,0,41,41,41,1,1,OLD,OLD,,,,,,,,
,,,,,,,,,,,,,,,,TestWords/KO_SU_FAI.wav,,60a7bf0ff7febd821afb6520,2021-07-11_22h41.12.140,Agingstudy_mst,2020.2.10,MacIntel,60,60e8550594adb1982c6cb1b5,60eb5725be08fc4e0a063886,,,,,D,,,,,,,,,,,,,,,2,0,3.0531,0,42,42,42,1,1,OLD,OLD,,,,,,,,
,,,,,,,,,,,,,,,,TestWords/NA_WAI_VU.wav,,60a7bf0ff7febd821afb6520,2021-07-11_22h41.12.140,Agingstudy_mst,2020.2.10,MacIntel,60,60e8550594adb1982c6cb1b5,60eb5725be08fc4e0a063886,,,,,D,,,,,,,,,,,,,,,2,1,1.0667,0,43,43,43,1,2,NEW,SIMILAR,,,,,,,,
,,,,,,,,,,,,,,,,TestWords/KAI_LAY_TA.wav,,60a7bf0ff7febd821afb6520,2021-07-11_22h41.12.140,Agingstudy_mst,2020.2.10,MacIntel,60,60e8550594adb1982c6cb1b5,60eb5725be08fc4e0a063886,,,,,D,,,,,,,,,,,,,,,1,1,0.4505,0,44,44,44,1,1,OLD,OLD,,,,,,,,
,,,,,,,,,,,,,,,,TestWords/SI_VAI_CHU.wav,,60a7bf0ff7febd821afb6520,2021-07-11_22h41.12.140,Agingstudy_mst,2020.2.10,MacIntel,60,60e8550594adb1982c6cb1b5,60eb5725be08fc4e0a063886,,,,,D,,,,,,,,,,,,,,,2,1,2.2673,0,45,45,45,1,2,NEW,NEW,,,,,,,,
,,,,,,,,,,,,,,,,TestWords/RAY_PA_TI.wav,,60a7bf0ff7febd821afb6520,2021-07-11_22h41.12.140,Agingstudy_mst,2020.2.10,MacIntel,60,60e8550594adb1982c6cb1b5,60eb5725be08fc4e0a063886,,,,,D,,,,,,,,,,,,,,,1,1,3.7222,0,46,46,46,1,1,OLD,OLD,,,,,,,,
,,,,,,,,,,,,,,,,TestWords/GA_MU_ZI.wav,,60a7bf0ff7febd821afb6520,2021-07-11_22h41.12.140,Agingstudy_mst,2020.2.10,MacIntel,60,60e8550594adb1982c6cb1b5,60eb5725be08fc4e0a063886,,,,,D,,,,,,,,,,,,,,,1,1,4.8159,0,47,47,47,1,1,OLD,OLD,,,,,,,,
,,,,,,,,,,,,,,,,TestWords/LI_KAY_BA.wav,,60a7bf0ff7febd821afb6520,2021-07-11_22h41.12.140,Agingstudy_mst,2020.2.10,MacIntel,60,60e8550594adb1982c6cb1b5,60eb5725be08fc4e0a063886,,,,,D,,,,,,,,,,,,,,,2,1,1.755,0,48,48,48,1,2,NEW,SIMILAR,,,,,,,,
,,,,,,,,,,,,,,,,TestWords/KO_SU_FAI.wav,,60a7bf0ff7febd821afb6520,2021-07-11_22h41.12.140,Agingstudy_mst,2020.2.10,MacIntel,60,60e8550594adb1982c6cb1b5,60eb5725be08fc4e0a063886,,,,,D,,,,,,,,,,,,,,,1,1,1.2008,0,49,49,49,1,1,OLD,OLD,,,,,,,,
,,,,,,,,,,,,,,,,TestWords/DAI_RU_CHI.wav,,60a7bf0ff7febd821afb6520,2021-07-11_22h41.12.140,Agingstudy_mst,2020.2.10,MacIntel,60,60e8550594adb1982c6cb1b5,60eb5725be08fc4e0a063886,,,,,D,,,,,,,,,,,,,,,1,1,0.1882,0,50,50,50,1,1,OLD,OLD,,,,,,,,
,,,,,,,,,,,,,,,,TestWords/DAY_PU_MO.wav,,60a7bf0ff7febd821afb6520,2021-07-11_22h41.12.140,Agingstudy_mst,2020.2.10,MacIntel,60,60e8550594adb1982c6cb1b5,60eb5725be08fc4e0a063886,,,,,D,,,,,,,,,,,,,,,2,1,0.7012,0,51,51,51,1,2,NEW,NEW,,,,,,,,
,,,,,,,,,,,,,,,,TestWords/KAI_LAY_TA.wav,,60a7bf0ff7febd821afb6520,2021-07-11_22h41.12.140,Agingstudy_mst,2020.2.10,MacIntel,60,60e8550594adb1982c6cb1b5,60eb5725be08fc4e0a063886,,,,,D,,,,,,,,,,,,,,,1,1,0.601,0,52,52,52,1,1,OLD,OLD,,,,,,,,
,,,,,,,,,,,,,,,,TestWords/LU_HAI_BO.wav,,60a7bf0ff7febd821afb6520,2021-07-11_22h41.12.140,Agingstudy_mst,2020.2.10,MacIntel,60,60e8550594adb1982c6cb1b5,60eb5725be08fc4e0a063886,,,,,D,,,,,,,,,,,,,,,1,0,0.4829,0,53,53,53,1,2,NEW,NEW,,,,,,,,
,,,,,,,,,,,,,,,,TestWords/RAY_PA_TI.wav,,60a7bf0ff7febd821afb6520,2021-07-11_22h41.12.140,Agingstudy_mst,2020.2.10,MacIntel,60,60e8550594adb1982c6cb1b5,60eb5725be08fc4e0a063886,,,,,D,,,,,,,,,,,,,,,1,1,0.3159,0,54,54,54,1,1,OLD,OLD,,,,,,,,
,,,,,,,,,,,,,,,,TestWords/GA_MU_ZI.wav,,60a7bf0ff7febd821afb6520,2021-07-11_22h41.12.140,Agingstudy_mst,2020.2.10,MacIntel,60,60e8550594adb1982c6cb1b5,60eb5725be08fc4e0a063886,,,,,D,,,,,,,,,,,,,,,2,0,0.9832,0,55,55,55,1,1,OLD,OLD,,,,,,,,
,,,,,,,,,,,,,,,,TestWords/KO_SU_FAI.wav,,60a7bf0ff7febd821afb6520,2021-07-11_22h41.12.140,Agingstudy_mst,2020.2.10,MacIntel,60,60e8550594adb1982c6cb1b5,60eb5725be08fc4e0a063886,,,,,D,,,,,,,,,,,,,,,1,1,0.2342,0,56,56,56,1,1,OLD,OLD,,,,,,,,
,,,,,,,,,,,,,,,,TestWords/TAI_SA_GI.wav,,60a7bf0ff7febd821afb6520,2021-07-11_22h41.12.140,Agingstudy_mst,2020.2.10,MacIntel,60,60e8550594adb1982c6cb1b5,60eb5725be08fc4e0a063886,,,,,D,,,,,,,,,,,,,,,2,1,1.4003,0,57,57,57,1,2,NEW,NEW,,,,,,,,
,,,,,,,,,,,,,,,,TestWords/DAY_MO_PU.wav,,60a7bf0ff7febd821afb6520,2021-07-11_22h41.12.140,Agingstudy_mst,2020.2.10,MacIntel,60,60e8550594adb1982c6cb1b5,60eb5725be08fc4e0a063886,,,,,D,,,,,,,,,,,,,,,2,1,1.7857,0,58,58,58,1,2,NEW,SIMILAR,,,,,,,,
,,,,,,,,,,,,,,,,TestWords/DAI_RU_CHI.wav,,60a7bf0ff7febd821afb6520,2021-07-11_22h41.12.140,Agingstudy_mst,2020.2.10,MacIntel,60,60e8550594adb1982c6cb1b5,60eb5725be08fc4e0a063886,,,,,D,,,,,,,,,,,,,,,1,1,2.3533,0,59,59,59,1,1,OLD,OLD,,,,,,,,
,,,,,,,,,,,,,,,,TestWords/KAI_LAY_TA.wav,,60a7bf0ff7febd821afb6520,2021-07-11_22h41.12.140,Agingstudy_mst,2020.2.10,MacIntel,60,60e8550594adb1982c6cb1b5,60eb5725be08fc4e0a063886,,,,,D,,,,,,,,,,,,,,,1,1,0.2511,0,60,60,60,1,1,OLD,OLD,,,,,,,,
,,,,,,,,,,,,,,,,TestWords/LA_ZAY_CHAI.wav,,60a7bf0ff7febd821afb6520,2021-07-11_22h41.12.140,Agingstudy_mst,2020.2.10,MacIntel,60,60e8550594adb1982c6cb1b5,60eb5725be08fc4e0a063886,,,,,D,,,,,,,,,,,,,,,2,1,1.3725,0,61,61,61,1,2,NEW,NEW,,,,,,,,
,,,,,,,,,,,,,,,,TestWords/RAY_PA_TI.wav,,60a7bf0ff7febd821afb6520,2021-07-11_22h41.12.140,Agingstudy_mst,2020.2.10,MacIntel,60,60e8550594adb1982c6cb1b5,60eb5725be08fc4e0a063886,,,,,D,,,,,,,,,,,,,,,1,1,0.2407,0,62,62,62,1,1,OLD,OLD,,,,,,,,
,,,,,,,,,,,,,,,,TestWords/KO_SU_FAI.wav,,60a7bf0ff7febd821afb6520,2021-07-11_22h41.12.140,Agingstudy_mst,2020.2.10,MacIntel,60,60e8550594adb1982c6cb1b5,60eb5725be08fc4e0a063886,,,,,D,,,,,,,,,,,,,,,1,1,0.45,0,63,63,63,1,1,OLD,OLD,,,,,,,,
,,,,,,,,,,,,,,,,TestWords/GA_MU_ZI.wav,,60a7bf0ff7febd821afb6520,2021-07-11_22h41.12.140,Agingstudy_mst,2020.2.10,MacIntel,60,60e8550594adb1982c6cb1b5,60eb5725be08fc4e0a063886,,,,,D,,,,,,,,,,,,,,,1,1,0.0685,0,64,64,64,1,1,OLD,OLD,,,,,,,,
,,,,,,,,,,,,,,,,TestWords/GI_TAI_SA.wav,,60a7bf0ff7febd821afb6520,2021-07-11_22h41.12.140,Agingstudy_mst,2020.2.10,MacIntel,60,60e8550594adb1982c6cb1b5,60eb5725be08fc4e0a063886,,,,,D,,,,,,,,,,,,,,,2,1,0.5173,0,65,65,65,1,2,NEW,SIMILAR,,,,,,,,
,,,,,,,,,,,,,,,,TestWords/MO_DAY_PU.wav,,60a7bf0ff7febd821afb6520,2021-07-11_22h41.12.140,Agingstudy_mst,2020.2.10,MacIntel,60,60e8550594adb1982c6cb1b5,60eb5725be08fc4e0a063886,,,,,D,,,,,,,,,,,,,,,2,1,0.5656,0,66,66,66,1,2,NEW,SIMILAR,,,,,,,,
,,,,,,,,,,,,,,,,TestWords/KAI_LAY_TA.wav,,60a7bf0ff7febd821afb6520,2021-07-11_22h41.12.140,Agingstudy_mst,2020.2.10,MacIntel,60,60e8550594adb1982c6cb1b5,60eb5725be08fc4e0a063886,,,,,D,,,,,,,,,,,,,,,1,1,0.1338,0,67,67,67,1,1,OLD,OLD,,,,,,,,
,,,,,,,,,,,,,,,,TestWords/KO_SU_FAI.wav,,60a7bf0ff7febd821afb6520,2021-07-11_22h41.12.140,Agingstudy_mst,2020.2.10,MacIntel,60,60e8550594adb1982c6cb1b5,60eb5725be08fc4e0a063886,,,,,D,,,,,,,,,,,,,,,1,1,0.2832,0,68,68,68,1,1,OLD,OLD,,,,,,,,
,,,,,,,,,,,,,,,,TestWords/RAY_PA_TI.wav,,60a7bf0ff7febd821afb6520,2021-07-11_22h41.12.140,Agingstudy_mst,2020.2.10,MacIntel,60,60e8550594adb1982c6cb1b5,60eb5725be08fc4e0a063886,,,,,D,,,,,,,,,,,,,,,1,1,4.718,0,69,69,69,1,1,OLD,OLD,,,,,,,,
,,,,,,,,,,,,,,,,TestWords/NU_CHAY_SO.wav,,60a7bf0ff7febd821afb6520,2021-07-11_22h41.12.140,Agingstudy_mst,2020.2.10,MacIntel,60,60e8550594adb1982c6cb1b5,60eb5725be08fc4e0a063886,,,,,D,,,,,,,,,,,,,,,2,1,0.8686,0,70,70,70,1,2,NEW,NEW,,,,,,,,
,,,,,,,,,,,,,,,,TestWords/GA_MU_ZI.wav,,60a7bf0ff7febd821afb6520,2021-07-11_22h41.12.140,Agingstudy_mst,2020.2.10,MacIntel,60,60e8550594adb1982c6cb1b5,60eb5725be08fc4e0a063886,,,,,D,,,,,,,,,,,,,,,1,1,0.3881,0,71,71,71,1,1,OLD,OLD,,,,,,,,
,,,,,,,,,,,,,,,,TestWords/DAI_RU_CHI.wav,,60a7bf0ff7febd821afb6520,2021-07-11_22h41.12.140,Agingstudy_mst,2020.2.10,MacIntel,60,60e8550594adb1982c6cb1b5,60eb5725be08fc4e0a063886,,,,,D,,,,,,,,,,,,,,,1,1,1.9511,0,72,72,72,1,1,OLD,OLD,,,,,,,,
,,,,,,,,,,,,,,,,TestWords/SA_TAI_GI.wav,,60a7bf0ff7febd821afb6520,2021-07-11_22h41.12.140,Agingstudy_mst,2020.2.10,MacIntel,60,60e8550594adb1982c6cb1b5,60eb5725be08fc4e0a063886,,,,,D,,,,,,,,,,,,,,,2,1,1.0364,0,73,73,73,1,2,NEW,SIMILAR,,,,,,,,
,,,,,,,,,,,,,,,,TestWords/PU_DAY_MO.wav,,60a7bf0ff7febd821afb6520,2021-07-11_22h41.12.140,Agingstudy_mst,2020.2.10,MacIntel,60,60e8550594adb1982c6cb1b5,60eb5725be08fc4e0a063886,,,,,D,,,,,,,,,,,,,,,2,1,1.5338,0,74,74,74,1,2,NEW,SIMILAR,,,,,,,,
,,,,,,,,,,,,,,,,TestWords/KO_SU_FAI.wav,,60a7bf0ff7febd821afb6520,2021-07-11_22h41.12.140,Agingstudy_mst,2020.2.10,MacIntel,60,60e8550594adb1982c6cb1b5,60eb5725be08fc4e0a063886,,,,,D,,,,,,,,,,,,,,,1,1,0.2063,0,75,75,75,1,1,OLD,OLD,,,,,,,,
,,,,,,,,,,,,,,,,TestWords/KAI_LAY_TA.wav,,60a7bf0ff7febd821afb6520,2021-07-11_22h41.12.140,Agingstudy_mst,2020.2.10,MacIntel,60,60e8550594adb1982c6cb1b5,60eb5725be08fc4e0a063886,,,,,D,,,,,,,,,,,,,,,1,1,0.3499,0,76,76,76,1,1,OLD,OLD,,,,,,,,
,,,,,,,,,,,,,,,,TestWords/HA_SI_JAI.wav,,60a7bf0ff7febd821afb6520,2021-07-11_22h41.12.140,Agingstudy_mst,2020.2.10,MacIntel,60,60e8550594adb1982c6cb1b5,60eb5725be08fc4e0a063886,,,,,D,,,,,,,,,,,,,,,1,0,1.9348,0,77,77,77,1,2,NEW,NEW,,,,,,,,
,,,,,,,,,,,,,,,,TestWords/RAY_PA_TI.wav,,60a7bf0ff7febd821afb6520,2021-07-11_22h41.12.140,Agingstudy_mst,2020.2.10,MacIntel,60,60e8550594adb1982c6cb1b5,60eb5725be08fc4e0a063886,,,,,D,,,,,,,,,,,,,,,1,1,2.6358,0,78,78,78,1,1,OLD,OLD,,,,,,,,
,,,,,,,,,,,,,,,,TestWords/DAI_RU_CHI.wav,,60a7bf0ff7febd821afb6520,2021-07-11_22h41.12.140,Agingstudy_mst,2020.2.10,MacIntel,60,60e8550594adb1982c6cb1b5,60eb5725be08fc4e0a063886,,,,,D,,,,,,,,,,,,,,,1,1,0.5056,0,79,79,79,1,1,OLD,OLD,,,,,,,,
,,,,,,,,,,,,,,,,TestWords/GA_MU_ZI.wav,,60a7bf0ff7febd821afb6520,2021-07-11_22h41.12.140,Agingstudy_mst,2020.2.10,MacIntel,60,60e8550594adb1982c6cb1b5,60eb5725be08fc4e0a063886,,,,,D,,,,,,,,,,,,,,,2,0,1.235,0,80,80,80,1,1,OLD,OLD,,,,,,,,
,,,,,,,,,,,,,,,,TestWords/SA_GI_TAI.wav,,60a7bf0ff7febd821afb6520,2021-07-11_22h41.12.140,Agingstudy_mst,2020.2.10,MacIntel,60,60e8550594adb1982c6cb1b5,60eb5725be08fc4e0a063886,,,,,D,,,,,,,,,,,,,,,2,1,2.3494,0,81,81,81,1,2,NEW,SIMILAR,,,,,,,,
,,,,,,,,,,,,,,,,TestWords/KO_SU_FAI.wav,,60a7bf0ff7febd821afb6520,2021-07-11_22h41.12.140,Agingstudy_mst,2020.2.10,MacIntel,60,60e8550594adb1982c6cb1b5,60eb5725be08fc4e0a063886,,,,,D,,,,,,,,,,,,,,,1,1,0.2513,0,82,82,82,1,1,OLD,OLD,,,,,,,,
,,,,,,,,,,,,,,,,TestWords/KAI_LAY_TA.wav,,60a7bf0ff7febd821afb6520,2021-07-11_22h41.12.140,Agingstudy_mst,2020.2.10,MacIntel,60,60e8550594adb1982c6cb1b5,60eb5725be08fc4e0a063886,,,,,D,,,,,,,,,,,,,,,1,1,0.6002,0,83,83,83,1,1,OLD,OLD,,,,,,,,
,,,,,,,,,,,,,,,,TestWords/PU_MO_DAY.wav,,60a7bf0ff7febd821afb6520,2021-07-11_22h41.12.140,Agingstudy_mst,2020.2.10,MacIntel,60,60e8550594adb1982c6cb1b5,60eb5725be08fc4e0a063886,,,,,D,,,,,,,,,,,,,,,2,1,0.7837,0,84,84,84,1,2,NEW,SIMILAR,,,,,,,,
,,,,,,,,,,,,,,,,TestWords/RAY_PA_TI.wav,,60a7bf0ff7febd821afb6520,2021-07-11_22h41.12.140,Agingstudy_mst,2020.2.10,MacIntel,60,60e8550594adb1982c6cb1b5,60eb5725be08fc4e0a063886,,,,,D,,,,,,,,,,,,,,,1,1,0.4179,0,85,85,85,1,1,OLD,OLD,,,,,,,,
,,,,,,,,,,,,,,,,TestWords/HI_NAY_VA.wav,,60a7bf0ff7febd821afb6520,2021-07-11_22h41.12.140,Agingstudy_mst,2020.2.10,MacIntel,60,60e8550594adb1982c6cb1b5,60eb5725be08fc4e0a063886,,,,,D,,,,,,,,,,,,,,,2,1,0.9015,0,86,86,86,1,2,NEW,NEW,,,,,,,,
,,,,,,,,,,,,,,,,TestWords/DAI_RU_CHI.wav,,60a7bf0ff7febd821afb6520,2021-07-11_22h41.12.140,Agingstudy_mst,2020.2.10,MacIntel,60,60e8550594adb1982c6cb1b5,60eb5725be08fc4e0a063886,,,,,D,,,,,,,,,,,,,,,1,1,0.1684,0,87,87,87,1,1,OLD,OLD,,,,,,,,
,,,,,,,,,,,,,,,,TestWords/TAI_GI_SA.wav,,60a7bf0ff7febd821afb6520,2021-07-11_22h41.12.140,Agingstudy_mst,2020.2.10,MacIntel,60,60e8550594adb1982c6cb1b5,60eb5725be08fc4e0a063886,,,,,D,,,,,,,,,,,,,,,2,1,2.8999,0,88,88,88,1,2,NEW,SIMILAR,,,,,,,,
,,,,,,,,,,,,,,,,TestWords/KO_SU_FAI.wav,,60a7bf0ff7febd821afb6520,2021-07-11_22h41.12.140,Agingstudy_mst,2020.2.10,MacIntel,60,60e8550594adb1982c6cb1b5,60eb5725be08fc4e0a063886,,,,,D,,,,,,,,,,,,,,,1,1,0.3668,0,89,89,89,1,1,OLD,OLD,,,,,,,,
,,,,,,,,,,,,,,,,TestWords/GA_MU_ZI.wav,,60a7bf0ff7febd821afb6520,2021-07-11_22h41.12.140,Agingstudy_mst,2020.2.10,MacIntel,60,60e8550594adb1982c6cb1b5,60eb5725be08fc4e0a063886,,,,,D,,,,,,,,,,,,,,,1,1,1.5509,0,90,90,90,1,1,OLD,OLD,,,,,,,,
,,,,,,,,,,,,,,,,TestWords/PAI_LU_WA.wav,,60a7bf0ff7febd821afb6520,2021-07-11_22h41.12.140,Agingstudy_mst,2020.2.10,MacIntel,60,60e8550594adb1982c6cb1b5,60eb5725be08fc4e0a063886,,,,,D,,,,,,,,,,,,,,,2,1,0.823,0,91,91,91,1,2,NEW,NEW,,,,,,,,
,,,,,,,,,,,,,,,,TestWords/KAI_LAY_TA.wav,,60a7bf0ff7febd821afb6520,2021-07-11_22h41.12.140,Agingstudy_mst,2020.2.10,MacIntel,60,60e8550594adb1982c6cb1b5,60eb5725be08fc4e0a063886,,,,,D,,,,,,,,,,,,,,,1,1,0.4529,0,92,92,92,1,1,OLD,OLD,,,,,,,,
,,,,,,,,,,,,,,,,TestWords/MO_PU_DAY.wav,,60a7bf0ff7febd821afb6520,2021-07-11_22h41.12.140,Agingstudy_mst,2020.2.10,MacIntel,60,60e8550594adb1982c6cb1b5,60eb5725be08fc4e0a063886,,,,,D,,,,,,,,,,,,,,,2,1,2.367,0,93,93,93,1,2,NEW,SIMILAR,,,,,,,,
,,,,,,,,,,,,,,,,TestWords/KO_SU_FAI.wav,,60a7bf0ff7febd821afb6520,2021-07-11_22h41.12.140,Agingstudy_mst,2020.2.10,MacIntel,60,60e8550594adb1982c6cb1b5,60eb5725be08fc4e0a063886,,,,,D,,,,,,,,,,,,,,,1,1,0.9997,0,94,94,94,1,1,OLD,OLD,,,,,,,,
,,,,,,,,,,,,,,,,TestWords/GI_SA_TAI.wav,,60a7bf0ff7febd821afb6520,2021-07-11_22h41.12.140,Agingstudy_mst,2020.2.10,MacIntel,60,60e8550594adb1982c6cb1b5,60eb5725be08fc4e0a063886,,,,,D,,,,,,,,,,,,,,,2,1,0.9227,0,95,95,95,1,2,NEW,SIMILAR,,,,,,,,
,,,,,,,,,,,,,,,,TestWords/HO_NAY_VA.wav,,60a7bf0ff7febd821afb6520,2021-07-11_22h41.12.140,Agingstudy_mst,2020.2.10,MacIntel,60,60e8550594adb1982c6cb1b5,60eb5725be08fc4e0a063886,,,,,D,,,,,,,,,,,,,,,1,0,0.9725,0,96,96,96,1,2,NEW,NEW,,,,,,,,
,,,,,,,,,,,,,,,,TestWords/GU_CHAI_PI.wav,,60a7bf0ff7febd821afb6520,2021-07-11_22h41.12.140,Agingstudy_mst,2020.2.10,MacIntel,60,60e8550594adb1982c6cb1b5,60eb5725be08fc4e0a063886,,,,,D,,,,,,,,,,,,,,,2,1,2.2179,0,97,97,97,1,2,NEW,NEW,,,,,,,,
,,,,,,,,,,,,,,,,TestWords/KO_SU_FAI.wav,,60a7bf0ff7febd821afb6520,2021-07-11_22h41.12.140,Agingstudy_mst,2020.2.10,MacIntel,60,60e8550594adb1982c6cb1b5,60eb5725be08fc4e0a063886,,,,,D,,,,,,,,,,,,,,,1,1,0.1344,0,98,98,98,1,1,OLD,OLD,,,,,,,,
,,,,,,,,,,,,,,,,TestWords/WAI_RO_JU.wav,,60a7bf0ff7febd821afb6520,2021-07-11_22h41.12.140,Agingstudy_mst,2020.2.10,MacIntel,60,60e8550594adb1982c6cb1b5,60eb5725be08fc4e0a063886,,,,,D,,,,,,,,,,,,,,,1,0,1.7013,0,99,99,99,1,2,NEW,NEW,,,,,,,,
,,,,,,,,,,,,,,,,,,60a7bf0ff7febd821afb6520,2021-07-11_22h41.12.140,Agingstudy_mst,2020.2.10,MacIntel,60,60e8550594adb1982c6cb1b5,60eb5725be08fc4e0a063886,,,,,,,,,,,,,,,,,,,,,,,,,,,,,,,0,0,0,0,1,,,
,,,,,,,,,,,,,,,,,,60a7bf0ff7febd821afb6520,2021-07-11_22h41.12.140,Agingstudy_mst,2020.2.10,MacIntel,60,60e8550594adb1982c6cb1b5,60eb5725be08fc4e0a063886,,,,,,,,,,,,,,,,,,,,,,,,,,,,,,,,,,,,return,8.0019,
