Welcome0Continue.keys,Welcome0Continue.rt,SoundCheckBegin.keys,SoundCheckBegin.rt,SoundCheckEndKey.keys,SoundCheckEndKey.rt,HeadphoneContinueKey.keys,HeadphoneContinueKey.rt,CheckResp.keys,CheckResp.corr,CheckResp.rt,HeadphoneLoop.thisRepN,HeadphoneLoop.thisTrialN,HeadphoneLoop.thisN,HeadphoneLoop.thisIndex,HeadphoneLoop.ran,File,Correct,participant,date,expName,psychopyVersion,OS,frameRate,STUDY_ID,SESSION_ID,ContinueKey8.keys,ContinueKey8.rt,MSTWelcomeContKey.keys,MSTWelcomeContKey.rt,Condition,MSTTrainIntroKey.keys,MSTTrainIntroKey.rt,MSTTrainKeys.keys,MSTTrainKeys.corr,MSTTrainKeys.rt,MSTTrainLoop.thisRepN,MSTTrainLoop.thisTrialN,MSTTrainLoop.thisN,MSTTrainLoop.thisIndex,MSTTrainLoop.ran,SoundFile,Type,MSTTestBeginKey.keys,MSTTestBeginKey.rt,MST_resp.keys,MST_resp.corr,MST_resp.rt,MSTPlayLoop.thisRepN,MSTPlayLoop.thisTrialN,MSTPlayLoop.thisN,MSTPlayLoop.thisIndex,MSTPlayLoop.ran,WordCorrect,Correct_type,WordType,MSTLoop.thisRepN,MSTLoop.thisTrialN,MSTLoop.thisN,MSTLoop.thisIndex,MSTLoop.ran,EndAllKey.keys,EndAllKey.rt,FeedbackResp.text
space,25.1083,space,2.3666,space,3.1317,space,5.5188,3,1,2.1582,0,0,0,4,1,Headphone/t3_1.wav,3,60e1b6d0e91e5cc07b01ef19,2021-07-11_13h16.52.076,Agingstudy_mst,2020.2.10,Win32,60,60e8550594adb1982c6cb1b5,60eb274f0469122ba986d2a8,,,,,,,,,,,,,,,,,,,,,,,,,,,,,,,,,,,,,,
,,,,,,,,3,0,4.141,0,1,1,1,1,Headphone/t1_2.wav,1,60e1b6d0e91e5cc07b01ef19,2021-07-11_13h16.52.076,Agingstudy_mst,2020.2.10,Win32,60,60e8550594adb1982c6cb1b5,60eb274f0469122ba986d2a8,,,,,,,,,,,,,,,,,,,,,,,,,,,,,,,,,,,,,,
,,,,,,,,3,1,0.5079,0,2,2,5,1,Headphone/t3_2.wav,3,60e1b6d0e91e5cc07b01ef19,2021-07-11_13h16.52.076,Agingstudy_mst,2020.2.10,Win32,60,60e8550594adb1982c6cb1b5,60eb274f0469122ba986d2a8,,,,,,,,,,,,,,,,,,,,,,,,,,,,,,,,,,,,,,
,,,,,,,,2,1,0.6115,0,3,3,2,1,Headphone/t2_1.wav,2,60e1b6d0e91e5cc07b01ef19,2021-07-11_13h16.52.076,Agingstudy_mst,2020.2.10,Win32,60,60e8550594adb1982c6cb1b5,60eb274f0469122ba986d2a8,,,,,,,,,,,,,,,,,,,,,,,,,,,,,,,,,,,,,,
,,,,,,,,2,1,0.5042,0,4,4,3,1,Headphone/t2_2.wav,2,60e1b6d0e91e5cc07b01ef19,2021-07-11_13h16.52.076,Agingstudy_mst,2020.2.10,Win32,60,60e8550594adb1982c6cb1b5,60eb274f0469122ba986d2a8,,,,,,,,,,,,,,,,,,,,,,,,,,,,,,,,,,,,,,
,,,,,,,,1,1,0.4826,0,5,5,0,1,Headphone/t1_1.wav,1,60e1b6d0e91e5cc07b01ef19,2021-07-11_13h16.52.076,Agingstudy_mst,2020.2.10,Win32,60,60e8550594adb1982c6cb1b5,60eb274f0469122ba986d2a8,,,,,,,,,,,,,,,,,,,,,,,,,,,,,,,,,,,,,,
,,,,,,,,,,,,,,,,,2,60e1b6d0e91e5cc07b01ef19,2021-07-11_13h16.52.076,Agingstudy_mst,2020.2.10,Win32,60,60e8550594adb1982c6cb1b5,60eb274f0469122ba986d2a8,space,17.2405,space,7.8749,1,space,3.2708,2,1,8.8783,0,0,0,0,1,Training/FO_YI_LAY.wav,NEW,,,,,,,,,,,,,,,,,,,,,
,,,,,,,,,,,,,,,,,1,60e1b6d0e91e5cc07b01ef19,2021-07-11_13h16.52.076,Agingstudy_mst,2020.2.10,Win32,60,60e8550594adb1982c6cb1b5,60eb274f0469122ba986d2a8,,,,,,,,1,1,0.6773,0,1,1,1,1,Training/FO_YI_LAY.wav,OLD,,,,,,,,,,,,,,,,,,,,,
,,,,,,,,,,,,,,,,,2,60e1b6d0e91e5cc07b01ef19,2021-07-11_13h16.52.076,Agingstudy_mst,2020.2.10,Win32,60,60e8550594adb1982c6cb1b5,60eb274f0469122ba986d2a8,,,,,,,,2,1,0.4894,0,2,2,2,1,Training/YO_BU_JAY.wav,NEW,,,,,,,,,,,,,,,,,,,,,
,,,,,,,,,,,,,,,,,2,60e1b6d0e91e5cc07b01ef19,2021-07-11_13h16.52.076,Agingstudy_mst,2020.2.10,Win32,60,60e8550594adb1982c6cb1b5,60eb274f0469122ba986d2a8,,,,,,,,2,1,0.6968,0,3,3,3,1,Training/JAY_YO_BU.wav,SIMILAR,,,,,,,,,,,,,,,,,,,,,
,,,,,,,,,,,,,,,,,1,60e1b6d0e91e5cc07b01ef19,2021-07-11_13h16.52.076,Agingstudy_mst,2020.2.10,Win32,60,60e8550594adb1982c6cb1b5,60eb274f0469122ba986d2a8,,,,,,,,2,0,0.9711,0,4,4,4,1,Training/FO_YI_LAY.wav,OLD,,,,,,,,,,,,,,,,,,,,,
,,,,,,,,,,,,,,,,TestWords/HA_SI_JAI.wav,,60e1b6d0e91e5cc07b01ef19,2021-07-11_13h16.52.076,Agingstudy_mst,2020.2.10,Win32,60,60e8550594adb1982c6cb1b5,60eb274f0469122ba986d2a8,,,,,C,,,,,,,,,,,,,space,4.3609,2,1,1.1699,0,0,0,0,1,2,NEW,NEW,,,,,,,,
,,,,,,,,,,,,,,,,TestWords/NO_WA_BAY.wav,,60e1b6d0e91e5cc07b01ef19,2021-07-11_13h16.52.076,Agingstudy_mst,2020.2.10,Win32,60,60e8550594adb1982c6cb1b5,60eb274f0469122ba986d2a8,,,,,C,,,,,,,,,,,,,,,2,1,0.8035,0,1,1,1,1,2,NEW,NEW,,,,,,,,
,,,,,,,,,,,,,,,,TestWords/KO_SU_FAI.wav,,60e1b6d0e91e5cc07b01ef19,2021-07-11_13h16.52.076,Agingstudy_mst,2020.2.10,Win32,60,60e8550594adb1982c6cb1b5,60eb274f0469122ba986d2a8,,,,,C,,,,,,,,,,,,,,,2,1,0.3979,0,2,2,2,1,2,NEW,NEW,,,,,,,,
,,,,,,,,,,,,,,,,TestWords/TAI_SA_GI.wav,,60e1b6d0e91e5cc07b01ef19,2021-07-11_13h16.52.076,Agingstudy_mst,2020.2.10,Win32,60,60e8550594adb1982c6cb1b5,60eb274f0469122ba986d2a8,,,,,C,,,,,,,,,,,,,,,2,1,0.4187,0,3,3,3,1,2,NEW,NEW,,,,,,,,
,,,,,,,,,,,,,,,,TestWords/HO_NAY_VA.wav,,60e1b6d0e91e5cc07b01ef19,2021-07-11_13h16.52.076,Agingstudy_mst,2020.2.10,Win32,60,60e8550594adb1982c6cb1b5,60eb274f0469122ba986d2a8,,,,,C,,,,,,,,,,,,,,,2,1,0.3588,0,4,4,4,1,2,NEW,NEW,,,,,,,,
,,,,,,,,,,,,,,,,TestWords/KAI_LAY_TA.wav,,60e1b6d0e91e5cc07b01ef19,2021-07-11_13h16.52.076,Agingstudy_mst,2020.2.10,Win32,60,60e8550594adb1982c6cb1b5,60eb274f0469122ba986d2a8,,,,,C,,,,,,,,,,,,,,,2,1,0.3783,0,5,5,5,1,2,NEW,NEW,,,,,,,,
,,,,,,,,,,,,,,,,TestWords/FI_GU_CHA.wav,,60e1b6d0e91e5cc07b01ef19,2021-07-11_13h16.52.076,Agingstudy_mst,2020.2.10,Win32,60,60e8550594adb1982c6cb1b5,60eb274f0469122ba986d2a8,,,,,C,,,,,,,,,,,,,,,2,1,0.356,0,6,6,6,1,2,NEW,NEW,,,,,,,,
,,,,,,,,,,,,,,,,TestWords/GI_SA_TAI.wav,,60e1b6d0e91e5cc07b01ef19,2021-07-11_13h16.52.076,Agingstudy_mst,2020.2.10,Win32,60,60e8550594adb1982c6cb1b5,60eb274f0469122ba986d2a8,,,,,C,,,,,,,,,,,,,,,2,1,0.3977,0,7,7,7,1,2,NEW,SIMILAR,,,,,,,,
,,,,,,,,,,,,,,,,TestWords/LU_HAI_BO.wav,,60e1b6d0e91e5cc07b01ef19,2021-07-11_13h16.52.076,Agingstudy_mst,2020.2.10,Win32,60,60e8550594adb1982c6cb1b5,60eb274f0469122ba986d2a8,,,,,C,,,,,,,,,,,,,,,2,1,0.9984,0,8,8,8,1,2,NEW,NEW,,,,,,,,
,,,,,,,,,,,,,,,,TestWords/KO_SU_FAI.wav,,60e1b6d0e91e5cc07b01ef19,2021-07-11_13h16.52.076,Agingstudy_mst,2020.2.10,Win32,60,60e8550594adb1982c6cb1b5,60eb274f0469122ba986d2a8,,,,,C,,,,,,,,,,,,,,,2,0,1.7827,0,9,9,9,1,1,OLD,OLD,,,,,,,,
,,,,,,,,,,,,,,,,TestWords/DAI_RU_CHI.wav,,60e1b6d0e91e5cc07b01ef19,2021-07-11_13h16.52.076,Agingstudy_mst,2020.2.10,Win32,60,60e8550594adb1982c6cb1b5,60eb274f0469122ba986d2a8,,,,,C,,,,,,,,,,,,,,,2,1,0.706,0,10,10,10,1,2,NEW,NEW,,,,,,,,
,,,,,,,,,,,,,,,,TestWords/CHU_LA_PAY.wav,,60e1b6d0e91e5cc07b01ef19,2021-07-11_13h16.52.076,Agingstudy_mst,2020.2.10,Win32,60,60e8550594adb1982c6cb1b5,60eb274f0469122ba986d2a8,,,,,C,,,,,,,,,,,,,,,2,1,2.4453,0,11,11,11,1,2,NEW,NEW,,,,,,,,
,,,,,,,,,,,,,,,,TestWords/KAI_LAY_TA.wav,,60e1b6d0e91e5cc07b01ef19,2021-07-11_13h16.52.076,Agingstudy_mst,2020.2.10,Win32,60,60e8550594adb1982c6cb1b5,60eb274f0469122ba986d2a8,,,,,C,,,,,,,,,,,,,,,2,0,0.6571,0,12,12,12,1,1,OLD,OLD,,,,,,,,
,,,,,,,,,,,,,,,,TestWords/GI_TAI_SA.wav,,60e1b6d0e91e5cc07b01ef19,2021-07-11_13h16.52.076,Agingstudy_mst,2020.2.10,Win32,60,60e8550594adb1982c6cb1b5,60eb274f0469122ba986d2a8,,,,,C,,,,,,,,,,,,,,,1,0,2.773,0,13,13,13,1,2,NEW,SIMILAR,,,,,,,,
,,,,,,,,,,,,,,,,TestWords/DAY_PU_MO.wav,,60e1b6d0e91e5cc07b01ef19,2021-07-11_13h16.52.076,Agingstudy_mst,2020.2.10,Win32,60,60e8550594adb1982c6cb1b5,60eb274f0469122ba986d2a8,,,,,C,,,,,,,,,,,,,,,2,1,0.6256,0,14,14,14,1,2,NEW,NEW,,,,,,,,
,,,,,,,,,,,,,,,,TestWords/KO_SU_FAI.wav,,60e1b6d0e91e5cc07b01ef19,2021-07-11_13h16.52.076,Agingstudy_mst,2020.2.10,Win32,60,60e8550594adb1982c6cb1b5,60eb274f0469122ba986d2a8,,,,,C,,,,,,,,,,,,,,,1,1,0.8813,0,15,15,15,1,1,OLD,OLD,,,,,,,,
,,,,,,,,,,,,,,,,TestWords/SA_TAI_GI.wav,,60e1b6d0e91e5cc07b01ef19,2021-07-11_13h16.52.076,Agingstudy_mst,2020.2.10,Win32,60,60e8550594adb1982c6cb1b5,60eb274f0469122ba986d2a8,,,,,C,,,,,,,,,,,,,,,2,1,0.4108,0,16,16,16,1,2,NEW,SIMILAR,,,,,,,,
,,,,,,,,,,,,,,,,TestWords/RAY_PA_TI.wav,,60e1b6d0e91e5cc07b01ef19,2021-07-11_13h16.52.076,Agingstudy_mst,2020.2.10,Win32,60,60e8550594adb1982c6cb1b5,60eb274f0469122ba986d2a8,,,,,C,,,,,,,,,,,,,,,2,1,0.1782,0,17,17,17,1,2,NEW,NEW,,,,,,,,
,,,,,,,,,,,,,,,,TestWords/KAI_LAY_TA.wav,,60e1b6d0e91e5cc07b01ef19,2021-07-11_13h16.52.076,Agingstudy_mst,2020.2.10,Win32,60,60e8550594adb1982c6cb1b5,60eb274f0469122ba986d2a8,,,,,C,,,,,,,,,,,,,,,1,1,0.6471,0,18,18,18,1,1,OLD,OLD,,,,,,,,
,,,,,,,,,,,,,,,,TestWords/DAY_MO_PU.wav,,60e1b6d0e91e5cc07b01ef19,2021-07-11_13h16.52.076,Agingstudy_mst,2020.2.10,Win32,60,60e8550594adb1982c6cb1b5,60eb274f0469122ba986d2a8,,,,,C,,,,,,,,,,,,,,,1,0,0.244,0,19,19,19,1,2,NEW,SIMILAR,,,,,,,,
,,,,,,,,,,,,,,,,TestWords/DAI_RU_CHI.wav,,60e1b6d0e91e5cc07b01ef19,2021-07-11_13h16.52.076,Agingstudy_mst,2020.2.10,Win32,60,60e8550594adb1982c6cb1b5,60eb274f0469122ba986d2a8,,,,,C,,,,,,,,,,,,,,,1,1,0.2766,0,20,20,20,1,1,OLD,OLD,,,,,,,,
,,,,,,,,,,,,,,,,TestWords/SA_GI_TAI.wav,,60e1b6d0e91e5cc07b01ef19,2021-07-11_13h16.52.076,Agingstudy_mst,2020.2.10,Win32,60,60e8550594adb1982c6cb1b5,60eb274f0469122ba986d2a8,,,,,C,,,,,,,,,,,,,,,2,1,2.5302,0,21,21,21,1,2,NEW,SIMILAR,,,,,,,,
,,,,,,,,,,,,,,,,TestWords/KO_SU_FAI.wav,,60e1b6d0e91e5cc07b01ef19,2021-07-11_13h16.52.076,Agingstudy_mst,2020.2.10,Win32,60,60e8550594adb1982c6cb1b5,60eb274f0469122ba986d2a8,,,,,C,,,,,,,,,,,,,,,1,1,0.671,0,22,22,22,1,1,OLD,OLD,,,,,,,,
,,,,,,,,,,,,,,,,TestWords/KAI_LAY_TA.wav,,60e1b6d0e91e5cc07b01ef19,2021-07-11_13h16.52.076,Agingstudy_mst,2020.2.10,Win32,60,60e8550594adb1982c6cb1b5,60eb274f0469122ba986d2a8,,,,,C,,,,,,,,,,,,,,,1,1,0.5509,0,23,23,23,1,1,OLD,OLD,,,,,,,,
,,,,,,,,,,,,,,,,TestWords/RAY_PA_TI.wav,,60e1b6d0e91e5cc07b01ef19,2021-07-11_13h16.52.076,Agingstudy_mst,2020.2.10,Win32,60,60e8550594adb1982c6cb1b5,60eb274f0469122ba986d2a8,,,,,C,,,,,,,,,,,,,,,1,1,0.0583,0,24,24,24,1,1,OLD,OLD,,,,,,,,
,,,,,,,,,,,,,,,,TestWords/MO_DAY_PU.wav,,60e1b6d0e91e5cc07b01ef19,2021-07-11_13h16.52.076,Agingstudy_mst,2020.2.10,Win32,60,60e8550594adb1982c6cb1b5,60eb274f0469122ba986d2a8,,,,,C,,,,,,,,,,,,,,,2,1,0.4432,0,25,25,25,1,2,NEW,SIMILAR,,,,,,,,
,,,,,,,,,,,,,,,,TestWords/DAI_RU_CHI.wav,,60e1b6d0e91e5cc07b01ef19,2021-07-11_13h16.52.076,Agingstudy_mst,2020.2.10,Win32,60,60e8550594adb1982c6cb1b5,60eb274f0469122ba986d2a8,,,,,C,,,,,,,,,,,,,,,1,1,0.1794,0,26,26,26,1,1,OLD,OLD,,,,,,,,
,,,,,,,,,,,,,,,,TestWords/TAI_GI_SA.wav,,60e1b6d0e91e5cc07b01ef19,2021-07-11_13h16.52.076,Agingstudy_mst,2020.2.10,Win32,60,60e8550594adb1982c6cb1b5,60eb274f0469122ba986d2a8,,,,,C,,,,,,,,,,,,,,,1,0,0.6021,0,27,27,27,1,2,NEW,SIMILAR,,,,,,,,
,,,,,,,,,,,,,,,,TestWords/GA_MU_ZI.wav,,60e1b6d0e91e5cc07b01ef19,2021-07-11_13h16.52.076,Agingstudy_mst,2020.2.10,Win32,60,60e8550594adb1982c6cb1b5,60eb274f0469122ba986d2a8,,,,,C,,,,,,,,,,,,,,,2,1,0.3897,0,28,28,28,1,2,NEW,NEW,,,,,,,,
,,,,,,,,,,,,,,,,TestWords/BA_KAY_LI.wav,,60e1b6d0e91e5cc07b01ef19,2021-07-11_13h16.52.076,Agingstudy_mst,2020.2.10,Win32,60,60e8550594adb1982c6cb1b5,60eb274f0469122ba986d2a8,,,,,C,,,,,,,,,,,,,,,2,1,0.2181,0,29,29,29,1,2,NEW,NEW,,,,,,,,
,,,,,,,,,,,,,,,,TestWords/RAY_PA_TI.wav,,60e1b6d0e91e5cc07b01ef19,2021-07-11_13h16.52.076,Agingstudy_mst,2020.2.10,Win32,60,60e8550594adb1982c6cb1b5,60eb274f0469122ba986d2a8,,,,,C,,,,,,,,,,,,,,,1,1,0.2535,0,30,30,30,1,1,OLD,OLD,,,,,,,,
,,,,,,,,,,,,,,,,TestWords/KO_SU_FAI.wav,,60e1b6d0e91e5cc07b01ef19,2021-07-11_13h16.52.076,Agingstudy_mst,2020.2.10,Win32,60,60e8550594adb1982c6cb1b5,60eb274f0469122ba986d2a8,,,,,C,,,,,,,,,,,,,,,1,1,0.1689,0,31,31,31,1,1,OLD,OLD,,,,,,,,
,,,,,,,,,,,,,,,,TestWords/PU_DAY_MO.wav,,60e1b6d0e91e5cc07b01ef19,2021-07-11_13h16.52.076,Agingstudy_mst,2020.2.10,Win32,60,60e8550594adb1982c6cb1b5,60eb274f0469122ba986d2a8,,,,,C,,,,,,,,,,,,,,,1,0,0.6975,0,32,32,32,1,2,NEW,SIMILAR,,,,,,,,
,,,,,,,,,,,,,,,,TestWords/KAI_LAY_TA.wav,,60e1b6d0e91e5cc07b01ef19,2021-07-11_13h16.52.076,Agingstudy_mst,2020.2.10,Win32,60,60e8550594adb1982c6cb1b5,60eb274f0469122ba986d2a8,,,,,C,,,,,,,,,,,,,,,1,1,0.0433,0,33,33,33,1,1,OLD,OLD,,,,,,,,
,,,,,,,,,,,,,,,,TestWords/DAI_RU_CHI.wav,,60e1b6d0e91e5cc07b01ef19,2021-07-11_13h16.52.076,Agingstudy_mst,2020.2.10,Win32,60,60e8550594adb1982c6cb1b5,60eb274f0469122ba986d2a8,,,,,C,,,,,,,,,,,,,,,1,1,0.2632,0,34,34,34,1,1,OLD,OLD,,,,,,,,
,,,,,,,,,,,,,,,,TestWords/KAY_LI_BA.wav,,60e1b6d0e91e5cc07b01ef19,2021-07-11_13h16.52.076,Agingstudy_mst,2020.2.10,Win32,60,60e8550594adb1982c6cb1b5,60eb274f0469122ba986d2a8,,,,,C,,,,,,,,,,,,,,,1,0,0.1588,0,35,35,35,1,2,NEW,SIMILAR,,,,,,,,
,,,,,,,,,,,,,,,,TestWords/GA_MU_ZI.wav,,60e1b6d0e91e5cc07b01ef19,2021-07-11_13h16.52.076,Agingstudy_mst,2020.2.10,Win32,60,60e8550594adb1982c6cb1b5,60eb274f0469122ba986d2a8,,,,,C,,,,,,,,,,,,,,,2,0,1.4257,0,36,36,36,1,1,OLD,OLD,,,,,,,,
,,,,,,,,,,,,,,,,TestWords/RAY_PA_TI.wav,,60e1b6d0e91e5cc07b01ef19,2021-07-11_13h16.52.076,Agingstudy_mst,2020.2.10,Win32,60,60e8550594adb1982c6cb1b5,60eb274f0469122ba986d2a8,,,,,C,,,,,,,,,,,,,,,1,1,0.1667,0,37,37,37,1,1,OLD,OLD,,,,,,,,
,,,,,,,,,,,,,,,,TestWords/PU_MO_DAY.wav,,60e1b6d0e91e5cc07b01ef19,2021-07-11_13h16.52.076,Agingstudy_mst,2020.2.10,Win32,60,60e8550594adb1982c6cb1b5,60eb274f0469122ba986d2a8,,,,,C,,,,,,,,,,,,,,,1,0,0.9315,0,38,38,38,1,2,NEW,SIMILAR,,,,,,,,
,,,,,,,,,,,,,,,,TestWords/VAI_HO_LA.wav,,60e1b6d0e91e5cc07b01ef19,2021-07-11_13h16.52.076,Agingstudy_mst,2020.2.10,Win32,60,60e8550594adb1982c6cb1b5,60eb274f0469122ba986d2a8,,,,,C,,,,,,,,,,,,,,,2,1,0.2694,0,39,39,39,1,2,NEW,NEW,,,,,,,,
,,,,,,,,,,,,,,,,TestWords/KAI_LAY_TA.wav,,60e1b6d0e91e5cc07b01ef19,2021-07-11_13h16.52.076,Agingstudy_mst,2020.2.10,Win32,60,60e8550594adb1982c6cb1b5,60eb274f0469122ba986d2a8,,,,,C,,,,,,,,,,,,,,,1,1,0.1947,0,40,40,40,1,1,OLD,OLD,,,,,,,,
,,,,,,,,,,,,,,,,TestWords/KO_SU_FAI.wav,,60e1b6d0e91e5cc07b01ef19,2021-07-11_13h16.52.076,Agingstudy_mst,2020.2.10,Win32,60,60e8550594adb1982c6cb1b5,60eb274f0469122ba986d2a8,,,,,C,,,,,,,,,,,,,,,1,1,0.0853,0,41,41,41,1,1,OLD,OLD,,,,,,,,
,,,,,,,,,,,,,,,,TestWords/DAI_RU_CHI.wav,,60e1b6d0e91e5cc07b01ef19,2021-07-11_13h16.52.076,Agingstudy_mst,2020.2.10,Win32,60,60e8550594adb1982c6cb1b5,60eb274f0469122ba986d2a8,,,,,C,,,,,,,,,,,,,,,1,1,0.4939,0,42,42,42,1,1,OLD,OLD,,,,,,,,
,,,,,,,,,,,,,,,,TestWords/WAI_VU_NA.wav,,60e1b6d0e91e5cc07b01ef19,2021-07-11_13h16.52.076,Agingstudy_mst,2020.2.10,Win32,60,60e8550594adb1982c6cb1b5,60eb274f0469122ba986d2a8,,,,,C,,,,,,,,,,,,,,,2,1,0.0925,0,43,43,43,1,2,NEW,NEW,,,,,,,,
,,,,,,,,,,,,,,,,TestWords/GA_MU_ZI.wav,,60e1b6d0e91e5cc07b01ef19,2021-07-11_13h16.52.076,Agingstudy_mst,2020.2.10,Win32,60,60e8550594adb1982c6cb1b5,60eb274f0469122ba986d2a8,,,,,C,,,,,,,,,,,,,,,2,0,0.0795,0,44,44,44,1,1,OLD,OLD,,,,,,,,
,,,,,,,,,,,,,,,,TestWords/KAY_BA_LI.wav,,60e1b6d0e91e5cc07b01ef19,2021-07-11_13h16.52.076,Agingstudy_mst,2020.2.10,Win32,60,60e8550594adb1982c6cb1b5,60eb274f0469122ba986d2a8,,,,,C,,,,,,,,,,,,,,,2,1,0.2758,0,45,45,45,1,2,NEW,SIMILAR,,,,,,,,
,,,,,,,,,,,,,,,,TestWords/MO_PU_DAY.wav,,60e1b6d0e91e5cc07b01ef19,2021-07-11_13h16.52.076,Agingstudy_mst,2020.2.10,Win32,60,60e8550594adb1982c6cb1b5,60eb274f0469122ba986d2a8,,,,,C,,,,,,,,,,,,,,,1,0,0.2896,0,46,46,46,1,2,NEW,SIMILAR,,,,,,,,
,,,,,,,,,,,,,,,,TestWords/RAY_PA_TI.wav,,60e1b6d0e91e5cc07b01ef19,2021-07-11_13h16.52.076,Agingstudy_mst,2020.2.10,Win32,60,60e8550594adb1982c6cb1b5,60eb274f0469122ba986d2a8,,,,,C,,,,,,,,,,,,,,,1,1,1.5816,0,47,47,47,1,1,OLD,OLD,,,,,,,,
,,,,,,,,,,,,,,,,TestWords/KAI_LAY_TA.wav,,60e1b6d0e91e5cc07b01ef19,2021-07-11_13h16.52.076,Agingstudy_mst,2020.2.10,Win32,60,60e8550594adb1982c6cb1b5,60eb274f0469122ba986d2a8,,,,,C,,,,,,,,,,,,,,,1,1,0.4215,0,48,48,48,1,1,OLD,OLD,,,,,,,,
,,,,,,,,,,,,,,,,TestWords/WAI_NA_VU.wav,,60e1b6d0e91e5cc07b01ef19,2021-07-11_13h16.52.076,Agingstudy_mst,2020.2.10,Win32,60,60e8550594adb1982c6cb1b5,60eb274f0469122ba986d2a8,,,,,C,,,,,,,,,,,,,,,2,1,0.7017,0,49,49,49,1,2,NEW,SIMILAR,,,,,,,,
,,,,,,,,,,,,,,,,TestWords/KO_SU_FAI.wav,,60e1b6d0e91e5cc07b01ef19,2021-07-11_13h16.52.076,Agingstudy_mst,2020.2.10,Win32,60,60e8550594adb1982c6cb1b5,60eb274f0469122ba986d2a8,,,,,C,,,,,,,,,,,,,,,1,1,0.2889,0,50,50,50,1,1,OLD,OLD,,,,,,,,
,,,,,,,,,,,,,,,,TestWords/GA_MU_ZI.wav,,60e1b6d0e91e5cc07b01ef19,2021-07-11_13h16.52.076,Agingstudy_mst,2020.2.10,Win32,60,60e8550594adb1982c6cb1b5,60eb274f0469122ba986d2a8,,,,,C,,,,,,,,,,,,,,,1,1,1.6049,0,51,51,51,1,1,OLD,OLD,,,,,,,,
,,,,,,,,,,,,,,,,TestWords/NU_CHAY_SO.wav,,60e1b6d0e91e5cc07b01ef19,2021-07-11_13h16.52.076,Agingstudy_mst,2020.2.10,Win32,60,60e8550594adb1982c6cb1b5,60eb274f0469122ba986d2a8,,,,,C,,,,,,,,,,,,,,,2,1,1.5019,0,52,52,52,1,2,NEW,NEW,,,,,,,,
,,,,,,,,,,,,,,,,TestWords/DAI_RU_CHI.wav,,60e1b6d0e91e5cc07b01ef19,2021-07-11_13h16.52.076,Agingstudy_mst,2020.2.10,Win32,60,60e8550594adb1982c6cb1b5,60eb274f0469122ba986d2a8,,,,,C,,,,,,,,,,,,,,,1,1,0.4108,0,53,53,53,1,1,OLD,OLD,,,,,,,,
,,,,,,,,,,,,,,,,TestWords/VU_NA_WAI.wav,,60e1b6d0e91e5cc07b01ef19,2021-07-11_13h16.52.076,Agingstudy_mst,2020.2.10,Win32,60,60e8550594adb1982c6cb1b5,60eb274f0469122ba986d2a8,,,,,C,,,,,,,,,,,,,,,2,1,1.129,0,54,54,54,1,2,NEW,SIMILAR,,,,,,,,
,,,,,,,,,,,,,,,,TestWords/RAY_PA_TI.wav,,60e1b6d0e91e5cc07b01ef19,2021-07-11_13h16.52.076,Agingstudy_mst,2020.2.10,Win32,60,60e8550594adb1982c6cb1b5,60eb274f0469122ba986d2a8,,,,,C,,,,,,,,,,,,,,,1,1,0.2649,0,55,55,55,1,1,OLD,OLD,,,,,,,,
,,,,,,,,,,,,,,,,TestWords/KAI_LAY_TA.wav,,60e1b6d0e91e5cc07b01ef19,2021-07-11_13h16.52.076,Agingstudy_mst,2020.2.10,Win32,60,60e8550594adb1982c6cb1b5,60eb274f0469122ba986d2a8,,,,,C,,,,,,,,,,,,,,,1,1,0.1537,0,56,56,56,1,1,OLD,OLD,,,,,,,,
,,,,,,,,,,,,,,,,TestWords/LI_BA_KAY.wav,,60e1b6d0e91e5cc07b01ef19,2021-07-11_13h16.52.076,Agingstudy_mst,2020.2.10,Win32,60,60e8550594adb1982c6cb1b5,60eb274f0469122ba986d2a8,,,,,C,,,,,,,,,,,,,,,2,1,2.0169,0,57,57,57,1,2,NEW,SIMILAR,,,,,,,,
,,,,,,,,,,,,,,,,TestWords/GA_MU_ZI.wav,,60e1b6d0e91e5cc07b01ef19,2021-07-11_13h16.52.076,Agingstudy_mst,2020.2.10,Win32,60,60e8550594adb1982c6cb1b5,60eb274f0469122ba986d2a8,,,,,C,,,,,,,,,,,,,,,1,1,0.4108,0,58,58,58,1,1,OLD,OLD,,,,,,,,
,,,,,,,,,,,,,,,,TestWords/WAI_RO_JU.wav,,60e1b6d0e91e5cc07b01ef19,2021-07-11_13h16.52.076,Agingstudy_mst,2020.2.10,Win32,60,60e8550594adb1982c6cb1b5,60eb274f0469122ba986d2a8,,,,,C,,,,,,,,,,,,,,,1,0,1.2304,0,59,59,59,1,2,NEW,NEW,,,,,,,,
,,,,,,,,,,,,,,,,TestWords/KO_SU_FAI.wav,,60e1b6d0e91e5cc07b01ef19,2021-07-11_13h16.52.076,Agingstudy_mst,2020.2.10,Win32,60,60e8550594adb1982c6cb1b5,60eb274f0469122ba986d2a8,,,,,C,,,,,,,,,,,,,,,2,0,1.3965,0,60,60,60,1,1,OLD,OLD,,,,,,,,
,,,,,,,,,,,,,,,,TestWords/DAI_RU_CHI.wav,,60e1b6d0e91e5cc07b01ef19,2021-07-11_13h16.52.076,Agingstudy_mst,2020.2.10,Win32,60,60e8550594adb1982c6cb1b5,60eb274f0469122ba986d2a8,,,,,C,,,,,,,,,,,,,,,1,1,1.1224,0,61,61,61,1,1,OLD,OLD,,,,,,,,
,,,,,,,,,,,,,,,,TestWords/VU_WAI_NA.wav,,60e1b6d0e91e5cc07b01ef19,2021-07-11_13h16.52.076,Agingstudy_mst,2020.2.10,Win32,60,60e8550594adb1982c6cb1b5,60eb274f0469122ba986d2a8,,,,,C,,,,,,,,,,,,,,,1,0,0.8616,0,62,62,62,1,2,NEW,SIMILAR,,,,,,,,
,,,,,,,,,,,,,,,,TestWords/RAY_PA_TI.wav,,60e1b6d0e91e5cc07b01ef19,2021-07-11_13h16.52.076,Agingstudy_mst,2020.2.10,Win32,60,60e8550594adb1982c6cb1b5,60eb274f0469122ba986d2a8,,,,,C,,,,,,,,,,,,,,,1,1,0.202,0,63,63,63,1,1,OLD,OLD,,,,,,,,
,,,,,,,,,,,,,,,,TestWords/KAI_LAY_TA.wav,,60e1b6d0e91e5cc07b01ef19,2021-07-11_13h16.52.076,Agingstudy_mst,2020.2.10,Win32,60,60e8550594adb1982c6cb1b5,60eb274f0469122ba986d2a8,,,,,C,,,,,,,,,,,,,,,1,1,0.0213,0,64,64,64,1,1,OLD,OLD,,,,,,,,
,,,,,,,,,,,,,,,,TestWords/GA_MU_ZI.wav,,60e1b6d0e91e5cc07b01ef19,2021-07-11_13h16.52.076,Agingstudy_mst,2020.2.10,Win32,60,60e8550594adb1982c6cb1b5,60eb274f0469122ba986d2a8,,,,,C,,,,,,,,,,,,,,,1,1,0.1285,0,65,65,65,1,1,OLD,OLD,,,,,,,,
,,,,,,,,,,,,,,,,TestWords/BA_LI_KAY.wav,,60e1b6d0e91e5cc07b01ef19,2021-07-11_13h16.52.076,Agingstudy_mst,2020.2.10,Win32,60,60e8550594adb1982c6cb1b5,60eb274f0469122ba986d2a8,,,,,C,,,,,,,,,,,,,,,2,1,1.7065,0,66,66,66,1,2,NEW,SIMILAR,,,,,,,,
,,,,,,,,,,,,,,,,TestWords/NA_VU_WAI.wav,,60e1b6d0e91e5cc07b01ef19,2021-07-11_13h16.52.076,Agingstudy_mst,2020.2.10,Win32,60,60e8550594adb1982c6cb1b5,60eb274f0469122ba986d2a8,,,,,C,,,,,,,,,,,,,,,1,0,0.9021,0,67,67,67,1,2,NEW,SIMILAR,,,,,,,,
,,,,,,,,,,,,,,,,TestWords/KO_SU_FAI.wav,,60e1b6d0e91e5cc07b01ef19,2021-07-11_13h16.52.076,Agingstudy_mst,2020.2.10,Win32,60,60e8550594adb1982c6cb1b5,60eb274f0469122ba986d2a8,,,,,C,,,,,,,,,,,,,,,1,1,0.1548,0,68,68,68,1,1,OLD,OLD,,,,,,,,
,,,,,,,,,,,,,,,,TestWords/RAI_ZO_FU.wav,,60e1b6d0e91e5cc07b01ef19,2021-07-11_13h16.52.076,Agingstudy_mst,2020.2.10,Win32,60,60e8550594adb1982c6cb1b5,60eb274f0469122ba986d2a8,,,,,C,,,,,,,,,,,,,,,2,1,0.3795,0,69,69,69,1,2,NEW,NEW,,,,,,,,
,,,,,,,,,,,,,,,,TestWords/DAI_RU_CHI.wav,,60e1b6d0e91e5cc07b01ef19,2021-07-11_13h16.52.076,Agingstudy_mst,2020.2.10,Win32,60,60e8550594adb1982c6cb1b5,60eb274f0469122ba986d2a8,,,,,C,,,,,,,,,,,,,,,1,1,0.3937,0,70,70,70,1,1,OLD,OLD,,,,,,,,
,,,,,,,,,,,,,,,,TestWords/RAY_PA_TI.wav,,60e1b6d0e91e5cc07b01ef19,2021-07-11_13h16.52.076,Agingstudy_mst,2020.2.10,Win32,60,60e8550594adb1982c6cb1b5,60eb274f0469122ba986d2a8,,,,,C,,,,,,,,,,,,,,,1,1,0.2091,0,71,71,71,1,1,OLD,OLD,,,,,,,,
,,,,,,,,,,,,,,,,TestWords/LI_KAY_BA.wav,,60e1b6d0e91e5cc07b01ef19,2021-07-11_13h16.52.076,Agingstudy_mst,2020.2.10,Win32,60,60e8550594adb1982c6cb1b5,60eb274f0469122ba986d2a8,,,,,C,,,,,,,,,,,,,,,2,1,1.897,0,72,72,72,1,2,NEW,SIMILAR,,,,,,,,
,,,,,,,,,,,,,,,,TestWords/KAI_LAY_TA.wav,,60e1b6d0e91e5cc07b01ef19,2021-07-11_13h16.52.076,Agingstudy_mst,2020.2.10,Win32,60,60e8550594adb1982c6cb1b5,60eb274f0469122ba986d2a8,,,,,C,,,,,,,,,,,,,,,1,1,0.3897,0,73,73,73,1,1,OLD,OLD,,,,,,,,
,,,,,,,,,,,,,,,,TestWords/GA_MU_ZI.wav,,60e1b6d0e91e5cc07b01ef19,2021-07-11_13h16.52.076,Agingstudy_mst,2020.2.10,Win32,60,60e8550594adb1982c6cb1b5,60eb274f0469122ba986d2a8,,,,,C,,,,,,,,,,,,,,,1,1,0.7712,0,74,74,74,1,1,OLD,OLD,,,,,,,,
,,,,,,,,,,,,,,,,TestWords/NA_WAI_VU.wav,,60e1b6d0e91e5cc07b01ef19,2021-07-11_13h16.52.076,Agingstudy_mst,2020.2.10,Win32,60,60e8550594adb1982c6cb1b5,60eb274f0469122ba986d2a8,,,,,C,,,,,,,,,,,,,,,2,1,3.2351,0,75,75,75,1,2,NEW,SIMILAR,,,,,,,,
,,,,,,,,,,,,,,,,TestWords/KO_SU_FAI.wav,,60e1b6d0e91e5cc07b01ef19,2021-07-11_13h16.52.076,Agingstudy_mst,2020.2.10,Win32,60,60e8550594adb1982c6cb1b5,60eb274f0469122ba986d2a8,,,,,C,,,,,,,,,,,,,,,1,1,0.3734,0,76,76,76,1,1,OLD,OLD,,,,,,,,
,,,,,,,,,,,,,,,,TestWords/ZO_RAI_FU.wav,,60e1b6d0e91e5cc07b01ef19,2021-07-11_13h16.52.076,Agingstudy_mst,2020.2.10,Win32,60,60e8550594adb1982c6cb1b5,60eb274f0469122ba986d2a8,,,,,C,,,,,,,,,,,,,,,2,1,0.6878,0,77,77,77,1,2,NEW,SIMILAR,,,,,,,,
,,,,,,,,,,,,,,,,TestWords/RAY_PA_TI.wav,,60e1b6d0e91e5cc07b01ef19,2021-07-11_13h16.52.076,Agingstudy_mst,2020.2.10,Win32,60,60e8550594adb1982c6cb1b5,60eb274f0469122ba986d2a8,,,,,C,,,,,,,,,,,,,,,1,1,0.3392,0,78,78,78,1,1,OLD,OLD,,,,,,,,
,,,,,,,,,,,,,,,,TestWords/KAI_LAY_TA.wav,,60e1b6d0e91e5cc07b01ef19,2021-07-11_13h16.52.076,Agingstudy_mst,2020.2.10,Win32,60,60e8550594adb1982c6cb1b5,60eb274f0469122ba986d2a8,,,,,C,,,,,,,,,,,,,,,1,1,0.1253,0,79,79,79,1,1,OLD,OLD,,,,,,,,
,,,,,,,,,,,,,,,,TestWords/GA_MU_ZI.wav,,60e1b6d0e91e5cc07b01ef19,2021-07-11_13h16.52.076,Agingstudy_mst,2020.2.10,Win32,60,60e8550594adb1982c6cb1b5,60eb274f0469122ba986d2a8,,,,,C,,,,,,,,,,,,,,,1,1,0.0403,0,80,80,80,1,1,OLD,OLD,,,,,,,,
,,,,,,,,,,,,,,,,TestWords/DA_CHU_VAI.wav,,60e1b6d0e91e5cc07b01ef19,2021-07-11_13h16.52.076,Agingstudy_mst,2020.2.10,Win32,60,60e8550594adb1982c6cb1b5,60eb274f0469122ba986d2a8,,,,,C,,,,,,,,,,,,,,,1,0,1.0033,0,81,81,81,1,2,NEW,NEW,,,,,,,,
,,,,,,,,,,,,,,,,TestWords/DAI_RU_CHI.wav,,60e1b6d0e91e5cc07b01ef19,2021-07-11_13h16.52.076,Agingstudy_mst,2020.2.10,Win32,60,60e8550594adb1982c6cb1b5,60eb274f0469122ba986d2a8,,,,,C,,,,,,,,,,,,,,,1,1,0.7317,0,82,82,82,1,1,OLD,OLD,,,,,,,,
,,,,,,,,,,,,,,,,TestWords/FU_RAI_ZO.wav,,60e1b6d0e91e5cc07b01ef19,2021-07-11_13h16.52.076,Agingstudy_mst,2020.2.10,Win32,60,60e8550594adb1982c6cb1b5,60eb274f0469122ba986d2a8,,,,,C,,,,,,,,,,,,,,,1,0,1.5512,0,83,83,83,1,2,NEW,SIMILAR,,,,,,,,
,,,,,,,,,,,,,,,,TestWords/KO_SU_FAI.wav,,60e1b6d0e91e5cc07b01ef19,2021-07-11_13h16.52.076,Agingstudy_mst,2020.2.10,Win32,60,60e8550594adb1982c6cb1b5,60eb274f0469122ba986d2a8,,,,,C,,,,,,,,,,,,,,,1,1,0.0429,0,84,84,84,1,1,OLD,OLD,,,,,,,,
,,,,,,,,,,,,,,,,TestWords/RAY_PA_TI.wav,,60e1b6d0e91e5cc07b01ef19,2021-07-11_13h16.52.076,Agingstudy_mst,2020.2.10,Win32,60,60e8550594adb1982c6cb1b5,60eb274f0469122ba986d2a8,,,,,C,,,,,,,,,,,,,,,1,1,0.3168,0,85,85,85,1,1,OLD,OLD,,,,,,,,
,,,,,,,,,,,,,,,,TestWords/DAI_RU_CHI.wav,,60e1b6d0e91e5cc07b01ef19,2021-07-11_13h16.52.076,Agingstudy_mst,2020.2.10,Win32,60,60e8550594adb1982c6cb1b5,60eb274f0469122ba986d2a8,,,,,C,,,,,,,,,,,,,,,1,1,0.0845,0,86,86,86,1,1,OLD,OLD,,,,,,,,
,,,,,,,,,,,,,,,,TestWords/PAI_LU_WA.wav,,60e1b6d0e91e5cc07b01ef19,2021-07-11_13h16.52.076,Agingstudy_mst,2020.2.10,Win32,60,60e8550594adb1982c6cb1b5,60eb274f0469122ba986d2a8,,,,,C,,,,,,,,,,,,,,,2,1,0.4491,0,87,87,87,1,2,NEW,NEW,,,,,,,,
,,,,,,,,,,,,,,,,TestWords/GA_MU_ZI.wav,,60e1b6d0e91e5cc07b01ef19,2021-07-11_13h16.52.076,Agingstudy_mst,2020.2.10,Win32,60,60e8550594adb1982c6cb1b5,60eb274f0469122ba986d2a8,,,,,C,,,,,,,,,,,,,,,1,1,0.1766,0,88,88,88,1,1,OLD,OLD,,,,,,,,
,,,,,,,,,,,,,,,,TestWords/FU_ZO_RAI.wav,,60e1b6d0e91e5cc07b01ef19,2021-07-11_13h16.52.076,Agingstudy_mst,2020.2.10,Win32,60,60e8550594adb1982c6cb1b5,60eb274f0469122ba986d2a8,,,,,C,,,,,,,,,,,,,,,1,0,0.7441,0,89,89,89,1,2,NEW,SIMILAR,,,,,,,,
,,,,,,,,,,,,,,,,TestWords/RAY_PA_TI.wav,,60e1b6d0e91e5cc07b01ef19,2021-07-11_13h16.52.076,Agingstudy_mst,2020.2.10,Win32,60,60e8550594adb1982c6cb1b5,60eb274f0469122ba986d2a8,,,,,C,,,,,,,,,,,,,,,1,1,0.1685,0,90,90,90,1,1,OLD,OLD,,,,,,,,
,,,,,,,,,,,,,,,,TestWords/DAI_RU_CHI.wav,,60e1b6d0e91e5cc07b01ef19,2021-07-11_13h16.52.076,Agingstudy_mst,2020.2.10,Win32,60,60e8550594adb1982c6cb1b5,60eb274f0469122ba986d2a8,,,,,C,,,,,,,,,,,,,,,1,1,0.1148,0,91,91,91,1,1,OLD,OLD,,,,,,,,
,,,,,,,,,,,,,,,,TestWords/LA_ZAY_CHAI.wav,,60e1b6d0e91e5cc07b01ef19,2021-07-11_13h16.52.076,Agingstudy_mst,2020.2.10,Win32,60,60e8550594adb1982c6cb1b5,60eb274f0469122ba986d2a8,,,,,C,,,,,,,,,,,,,,,2,1,3.6812,0,92,92,92,1,2,NEW,NEW,,,,,,,,
,,,,,,,,,,,,,,,,TestWords/GA_MU_ZI.wav,,60e1b6d0e91e5cc07b01ef19,2021-07-11_13h16.52.076,Agingstudy_mst,2020.2.10,Win32,60,60e8550594adb1982c6cb1b5,60eb274f0469122ba986d2a8,,,,,C,,,,,,,,,,,,,,,1,1,0.2439,0,93,93,93,1,1,OLD,OLD,,,,,,,,
,,,,,,,,,,,,,,,,TestWords/RAI_FU_ZO.wav,,60e1b6d0e91e5cc07b01ef19,2021-07-11_13h16.52.076,Agingstudy_mst,2020.2.10,Win32,60,60e8550594adb1982c6cb1b5,60eb274f0469122ba986d2a8,,,,,C,,,,,,,,,,,,,,,1,0,2.105,0,94,94,94,1,2,NEW,SIMILAR,,,,,,,,
,,,,,,,,,,,,,,,,TestWords/GU_CHAI_PI.wav,,60e1b6d0e91e5cc07b01ef19,2021-07-11_13h16.52.076,Agingstudy_mst,2020.2.10,Win32,60,60e8550594adb1982c6cb1b5,60eb274f0469122ba986d2a8,,,,,C,,,,,,,,,,,,,,,2,1,0.8911,0,95,95,95,1,2,NEW,NEW,,,,,,,,
,,,,,,,,,,,,,,,,TestWords/HI_NAY_VA.wav,,60e1b6d0e91e5cc07b01ef19,2021-07-11_13h16.52.076,Agingstudy_mst,2020.2.10,Win32,60,60e8550594adb1982c6cb1b5,60eb274f0469122ba986d2a8,,,,,C,,,,,,,,,,,,,,,1,0,1.8154,0,96,96,96,1,2,NEW,NEW,,,,,,,,
,,,,,,,,,,,,,,,,TestWords/GA_MU_ZI.wav,,60e1b6d0e91e5cc07b01ef19,2021-07-11_13h16.52.076,Agingstudy_mst,2020.2.10,Win32,60,60e8550594adb1982c6cb1b5,60eb274f0469122ba986d2a8,,,,,C,,,,,,,,,,,,,,,1,1,0.5028,0,97,97,97,1,1,OLD,OLD,,,,,,,,
,,,,,,,,,,,,,,,,TestWords/SI_VAI_CHU.wav,,60e1b6d0e91e5cc07b01ef19,2021-07-11_13h16.52.076,Agingstudy_mst,2020.2.10,Win32,60,60e8550594adb1982c6cb1b5,60eb274f0469122ba986d2a8,,,,,C,,,,,,,,,,,,,,,1,0,0.4754,0,98,98,98,1,2,NEW,NEW,,,,,,,,
,,,,,,,,,,,,,,,,TestWords/ZO_FU_RAI.wav,,60e1b6d0e91e5cc07b01ef19,2021-07-11_13h16.52.076,Agingstudy_mst,2020.2.10,Win32,60,60e8550594adb1982c6cb1b5,60eb274f0469122ba986d2a8,,,,,C,,,,,,,,,,,,,,,1,0,0.8837,0,99,99,99,1,2,NEW,SIMILAR,,,,,,,,
,,,,,,,,,,,,,,,,,,60e1b6d0e91e5cc07b01ef19,2021-07-11_13h16.52.076,Agingstudy_mst,2020.2.10,Win32,60,60e8550594adb1982c6cb1b5,60eb274f0469122ba986d2a8,,,,,,,,,,,,,,,,,,,,,,,,,,,,,,,0,0,0,0,1,,,
,,,,,,,,,,,,,,,,,,60e1b6d0e91e5cc07b01ef19,2021-07-11_13h16.52.076,Agingstudy_mst,2020.2.10,Win32,60,60e8550594adb1982c6cb1b5,60eb274f0469122ba986d2a8,,,,,,,,,,,,,,,,,,,,,,,,,,,,,,,,,,,,return,13.0946,
