Welcome0Continue.keys,Welcome0Continue.rt,SoundCheckBegin.keys,SoundCheckBegin.rt,SoundCheckEndKey.keys,SoundCheckEndKey.rt,HeadphoneContinueKey.keys,HeadphoneContinueKey.rt,CheckResp.keys,CheckResp.corr,CheckResp.rt,HeadphoneLoop.thisRepN,HeadphoneLoop.thisTrialN,HeadphoneLoop.thisN,HeadphoneLoop.thisIndex,HeadphoneLoop.ran,File,Correct,participant,date,expName,psychopyVersion,OS,frameRate,ContinueKey8.keys,ContinueKey8.rt,MSTWelcomeContKey.keys,MSTWelcomeContKey.rt,Condition,MSTTrainIntroKey.keys,MSTTrainIntroKey.rt,MSTTrainKeys.keys,MSTTrainKeys.corr,MSTTrainKeys.rt,MSTTrainLoop.thisRepN,MSTTrainLoop.thisTrialN,MSTTrainLoop.thisN,MSTTrainLoop.thisIndex,MSTTrainLoop.ran,SoundFile,Type,MSTTestBeginKey.keys,MSTTestBeginKey.rt,MST_resp.keys,MST_resp.corr,MST_resp.rt,MSTPlayLoop.thisRepN,MSTPlayLoop.thisTrialN,MSTPlayLoop.thisN,MSTPlayLoop.thisIndex,MSTPlayLoop.ran,WordCorrect,Correct_type,WordType,MSTLoop.thisRepN,MSTLoop.thisTrialN,MSTLoop.thisN,MSTLoop.thisIndex,MSTLoop.ran,EndAllKey.keys,EndAllKey.rt,FeedbackResp.text
space,144.3517,space,4.9321,space,23.2768,space,29.6597,3,1,3.0273,0,0,0,4,1,Headphone/t3_1.wav,3,5592fd82fdf99b59a8fb1e61,2021-07-14_07h03.55.548,Agingstudy,2020.2.10,Win32,60,,,,,,,,,,,,,,,,,,,,,,,,,,,,,,,,,,,,,,
,,,,,,,,1,1,1.3269,0,1,1,0,1,Headphone/t1_1.wav,1,5592fd82fdf99b59a8fb1e61,2021-07-14_07h03.55.548,Agingstudy,2020.2.10,Win32,60,,,,,,,,,,,,,,,,,,,,,,,,,,,,,,,,,,,,,,
,,,,,,,,3,1,1.8596,0,2,2,5,1,Headphone/t3_2.wav,3,5592fd82fdf99b59a8fb1e61,2021-07-14_07h03.55.548,Agingstudy,2020.2.10,Win32,60,,,,,,,,,,,,,,,,,,,,,,,,,,,,,,,,,,,,,,
,,,,,,,,1,1,0.9326,0,3,3,1,1,Headphone/t1_2.wav,1,5592fd82fdf99b59a8fb1e61,2021-07-14_07h03.55.548,Agingstudy,2020.2.10,Win32,60,,,,,,,,,,,,,,,,,,,,,,,,,,,,,,,,,,,,,,
,,,,,,,,2,1,0.7263,0,4,4,3,1,Headphone/t2_2.wav,2,5592fd82fdf99b59a8fb1e61,2021-07-14_07h03.55.548,Agingstudy,2020.2.10,Win32,60,,,,,,,,,,,,,,,,,,,,,,,,,,,,,,,,,,,,,,
,,,,,,,,2,1,1.2421,0,5,5,2,1,Headphone/t2_1.wav,2,5592fd82fdf99b59a8fb1e61,2021-07-14_07h03.55.548,Agingstudy,2020.2.10,Win32,60,,,,,,,,,,,,,,,,,,,,,,,,,,,,,,,,,,,,,,
,,,,,,,,,,,,,,,,,2,5592fd82fdf99b59a8fb1e61,2021-07-14_07h03.55.548,Agingstudy,2020.2.10,Win32,60,space,44.5641,space,13.7948,1,space,6.8999,2,1,7.7824,0,0,0,0,1,Training/FO_YI_LAY.wav,NEW,,,,,,,,,,,,,,,,,,,,,
,,,,,,,,,,,,,,,,,1,5592fd82fdf99b59a8fb1e61,2021-07-14_07h03.55.548,Agingstudy,2020.2.10,Win32,60,,,,,,,,2,0,2.6862,0,1,1,1,1,Training/FO_YI_LAY.wav,OLD,,,,,,,,,,,,,,,,,,,,,
,,,,,,,,,,,,,,,,,2,5592fd82fdf99b59a8fb1e61,2021-07-14_07h03.55.548,Agingstudy,2020.2.10,Win32,60,,,,,,,,2,1,7.8334,0,2,2,2,1,Training/YO_BU_JAY.wav,NEW,,,,,,,,,,,,,,,,,,,,,
,,,,,,,,,,,,,,,,,2,5592fd82fdf99b59a8fb1e61,2021-07-14_07h03.55.548,Agingstudy,2020.2.10,Win32,60,,,,,,,,2,1,4.3337,0,3,3,3,1,Training/JAY_YO_BU.wav,SIMILAR,,,,,,,,,,,,,,,,,,,,,
,,,,,,,,,,,,,,,,,1,5592fd82fdf99b59a8fb1e61,2021-07-14_07h03.55.548,Agingstudy,2020.2.10,Win32,60,,,,,,,,1,1,9.4352,0,4,4,4,1,Training/FO_YI_LAY.wav,OLD,,,,,,,,,,,,,,,,,,,,,
,,,,,,,,,,,,,,,,TestWords/HO_NAY_VA.wav,,5592fd82fdf99b59a8fb1e61,2021-07-14_07h03.55.548,Agingstudy,2020.2.10,Win32,60,,,,,E,,,,,,,,,,,,,space,6.6652,2,1,3.5188,0,0,0,0,1,2,NEW,NEW,,,,,,,,
,,,,,,,,,,,,,,,,TestWords/LU_HAI_BO.wav,,5592fd82fdf99b59a8fb1e61,2021-07-14_07h03.55.548,Agingstudy,2020.2.10,Win32,60,,,,,E,,,,,,,,,,,,,,,2,1,1.7018,0,1,1,1,1,2,NEW,NEW,,,,,,,,
,,,,,,,,,,,,,,,,TestWords/GA_MU_ZI.wav,,5592fd82fdf99b59a8fb1e61,2021-07-14_07h03.55.548,Agingstudy,2020.2.10,Win32,60,,,,,E,,,,,,,,,,,,,,,2,1,2.8373,0,2,2,2,1,2,NEW,NEW,,,,,,,,
,,,,,,,,,,,,,,,,TestWords/BA_KAY_LI.wav,,5592fd82fdf99b59a8fb1e61,2021-07-14_07h03.55.548,Agingstudy,2020.2.10,Win32,60,,,,,E,,,,,,,,,,,,,,,2,1,5.2174,0,3,3,3,1,2,NEW,NEW,,,,,,,,
,,,,,,,,,,,,,,,,TestWords/DA_CHU_VAI.wav,,5592fd82fdf99b59a8fb1e61,2021-07-14_07h03.55.548,Agingstudy,2020.2.10,Win32,60,,,,,E,,,,,,,,,,,,,,,2,1,2.5594,0,4,4,4,1,2,NEW,NEW,,,,,,,,
,,,,,,,,,,,,,,,,TestWords/CHU_LA_PAY.wav,,5592fd82fdf99b59a8fb1e61,2021-07-14_07h03.55.548,Agingstudy,2020.2.10,Win32,60,,,,,E,,,,,,,,,,,,,,,2,1,4.1844,0,5,5,5,1,2,NEW,NEW,,,,,,,,
,,,,,,,,,,,,,,,,TestWords/RAY_PA_TI.wav,,5592fd82fdf99b59a8fb1e61,2021-07-14_07h03.55.548,Agingstudy,2020.2.10,Win32,60,,,,,E,,,,,,,,,,,,,,,2,1,1.194,0,6,6,6,1,2,NEW,NEW,,,,,,,,
,,,,,,,,,,,,,,,,TestWords/WAI_VU_NA.wav,,5592fd82fdf99b59a8fb1e61,2021-07-14_07h03.55.548,Agingstudy,2020.2.10,Win32,60,,,,,E,,,,,,,,,,,,,,,2,1,1.3515,0,7,7,7,1,2,NEW,NEW,,,,,,,,
,,,,,,,,,,,,,,,,TestWords/VAI_HO_LA.wav,,5592fd82fdf99b59a8fb1e61,2021-07-14_07h03.55.548,Agingstudy,2020.2.10,Win32,60,,,,,E,,,,,,,,,,,,,,,2,1,2.4428,0,8,8,8,1,2,NEW,NEW,,,,,,,,
,,,,,,,,,,,,,,,,TestWords/KAY_LI_BA.wav,,5592fd82fdf99b59a8fb1e61,2021-07-14_07h03.55.548,Agingstudy,2020.2.10,Win32,60,,,,,E,,,,,,,,,,,,,,,1,0,1.3322,0,9,9,9,1,2,NEW,SIMILAR,,,,,,,,
,,,,,,,,,,,,,,,,TestWords/GA_MU_ZI.wav,,5592fd82fdf99b59a8fb1e61,2021-07-14_07h03.55.548,Agingstudy,2020.2.10,Win32,60,,,,,E,,,,,,,,,,,,,,,1,1,1.8614,0,10,10,10,1,1,OLD,OLD,,,,,,,,
,,,,,,,,,,,,,,,,TestWords/LA_ZAY_CHAI.wav,,5592fd82fdf99b59a8fb1e61,2021-07-14_07h03.55.548,Agingstudy,2020.2.10,Win32,60,,,,,E,,,,,,,,,,,,,,,2,1,0.8563,0,11,11,11,1,2,NEW,NEW,,,,,,,,
,,,,,,,,,,,,,,,,TestWords/RAY_PA_TI.wav,,5592fd82fdf99b59a8fb1e61,2021-07-14_07h03.55.548,Agingstudy,2020.2.10,Win32,60,,,,,E,,,,,,,,,,,,,,,2,0,1.7145,0,12,12,12,1,1,OLD,OLD,,,,,,,,
,,,,,,,,,,,,,,,,TestWords/WAI_NA_VU.wav,,5592fd82fdf99b59a8fb1e61,2021-07-14_07h03.55.548,Agingstudy,2020.2.10,Win32,60,,,,,E,,,,,,,,,,,,,,,2,1,1.9555,0,13,13,13,1,2,NEW,SIMILAR,,,,,,,,
,,,,,,,,,,,,,,,,TestWords/DAI_RU_CHI.wav,,5592fd82fdf99b59a8fb1e61,2021-07-14_07h03.55.548,Agingstudy,2020.2.10,Win32,60,,,,,E,,,,,,,,,,,,,,,2,1,0.786,0,14,14,14,1,2,NEW,NEW,,,,,,,,
,,,,,,,,,,,,,,,,TestWords/KAY_BA_LI.wav,,5592fd82fdf99b59a8fb1e61,2021-07-14_07h03.55.548,Agingstudy,2020.2.10,Win32,60,,,,,E,,,,,,,,,,,,,,,1,0,1.0452,0,15,15,15,1,2,NEW,SIMILAR,,,,,,,,
,,,,,,,,,,,,,,,,TestWords/GA_MU_ZI.wav,,5592fd82fdf99b59a8fb1e61,2021-07-14_07h03.55.548,Agingstudy,2020.2.10,Win32,60,,,,,E,,,,,,,,,,,,,,,2,0,0.8387,0,16,16,16,1,1,OLD,OLD,,,,,,,,
,,,,,,,,,,,,,,,,TestWords/VU_NA_WAI.wav,,5592fd82fdf99b59a8fb1e61,2021-07-14_07h03.55.548,Agingstudy,2020.2.10,Win32,60,,,,,E,,,,,,,,,,,,,,,2,1,1.9014,0,17,17,17,1,2,NEW,SIMILAR,,,,,,,,
,,,,,,,,,,,,,,,,TestWords/RAY_PA_TI.wav,,5592fd82fdf99b59a8fb1e61,2021-07-14_07h03.55.548,Agingstudy,2020.2.10,Win32,60,,,,,E,,,,,,,,,,,,,,,1,1,0.318,0,18,18,18,1,1,OLD,OLD,,,,,,,,
,,,,,,,,,,,,,,,,TestWords/LI_BA_KAY.wav,,5592fd82fdf99b59a8fb1e61,2021-07-14_07h03.55.548,Agingstudy,2020.2.10,Win32,60,,,,,E,,,,,,,,,,,,,,,1,0,1.4845,0,19,19,19,1,2,NEW,SIMILAR,,,,,,,,
,,,,,,,,,,,,,,,,TestWords/DAY_MO_PU.wav,,5592fd82fdf99b59a8fb1e61,2021-07-14_07h03.55.548,Agingstudy,2020.2.10,Win32,60,,,,,E,,,,,,,,,,,,,,,1,0,0.9683,0,20,20,20,1,2,NEW,NEW,,,,,,,,
,,,,,,,,,,,,,,,,TestWords/DAI_RU_CHI.wav,,5592fd82fdf99b59a8fb1e61,2021-07-14_07h03.55.548,Agingstudy,2020.2.10,Win32,60,,,,,E,,,,,,,,,,,,,,,2,0,0.4413,0,21,21,21,1,1,OLD,OLD,,,,,,,,
,,,,,,,,,,,,,,,,TestWords/NU_CHAY_SO.wav,,5592fd82fdf99b59a8fb1e61,2021-07-14_07h03.55.548,Agingstudy,2020.2.10,Win32,60,,,,,E,,,,,,,,,,,,,,,2,1,0.935,0,22,22,22,1,2,NEW,NEW,,,,,,,,
,,,,,,,,,,,,,,,,TestWords/VU_WAI_NA.wav,,5592fd82fdf99b59a8fb1e61,2021-07-14_07h03.55.548,Agingstudy,2020.2.10,Win32,60,,,,,E,,,,,,,,,,,,,,,2,1,2.3873,0,23,23,23,1,2,NEW,SIMILAR,,,,,,,,
,,,,,,,,,,,,,,,,TestWords/GA_MU_ZI.wav,,5592fd82fdf99b59a8fb1e61,2021-07-14_07h03.55.548,Agingstudy,2020.2.10,Win32,60,,,,,E,,,,,,,,,,,,,,,1,1,1.6471,0,24,24,24,1,1,OLD,OLD,,,,,,,,
,,,,,,,,,,,,,,,,TestWords/RAY_PA_TI.wav,,5592fd82fdf99b59a8fb1e61,2021-07-14_07h03.55.548,Agingstudy,2020.2.10,Win32,60,,,,,E,,,,,,,,,,,,,,,1,1,0.5503,0,25,25,25,1,1,OLD,OLD,,,,,,,,
,,,,,,,,,,,,,,,,TestWords/KAI_LAY_TA.wav,,5592fd82fdf99b59a8fb1e61,2021-07-14_07h03.55.548,Agingstudy,2020.2.10,Win32,60,,,,,E,,,,,,,,,,,,,,,2,1,0.6626,0,26,26,26,1,2,NEW,NEW,,,,,,,,
,,,,,,,,,,,,,,,,TestWords/TAI_SA_GI.wav,,5592fd82fdf99b59a8fb1e61,2021-07-14_07h03.55.548,Agingstudy,2020.2.10,Win32,60,,,,,E,,,,,,,,,,,,,,,2,1,0.5091,0,27,27,27,1,2,NEW,NEW,,,,,,,,
,,,,,,,,,,,,,,,,TestWords/BA_LI_KAY.wav,,5592fd82fdf99b59a8fb1e61,2021-07-14_07h03.55.548,Agingstudy,2020.2.10,Win32,60,,,,,E,,,,,,,,,,,,,,,1,0,0.4583,0,28,28,28,1,2,NEW,SIMILAR,,,,,,,,
,,,,,,,,,,,,,,,,TestWords/KO_SU_FAI.wav,,5592fd82fdf99b59a8fb1e61,2021-07-14_07h03.55.548,Agingstudy,2020.2.10,Win32,60,,,,,E,,,,,,,,,,,,,,,2,1,0.5174,0,29,29,29,1,2,NEW,NEW,,,,,,,,
,,,,,,,,,,,,,,,,TestWords/MO_DAY_PU.wav,,5592fd82fdf99b59a8fb1e61,2021-07-14_07h03.55.548,Agingstudy,2020.2.10,Win32,60,,,,,E,,,,,,,,,,,,,,,2,1,2.6756,0,30,30,30,1,2,NEW,SIMILAR,,,,,,,,
,,,,,,,,,,,,,,,,TestWords/DAI_RU_CHI.wav,,5592fd82fdf99b59a8fb1e61,2021-07-14_07h03.55.548,Agingstudy,2020.2.10,Win32,60,,,,,E,,,,,,,,,,,,,,,2,0,0.7029,0,31,31,31,1,1,OLD,OLD,,,,,,,,
,,,,,,,,,,,,,,,,TestWords/NA_VU_WAI.wav,,5592fd82fdf99b59a8fb1e61,2021-07-14_07h03.55.548,Agingstudy,2020.2.10,Win32,60,,,,,E,,,,,,,,,,,,,,,1,0,0.3925,0,32,32,32,1,2,NEW,SIMILAR,,,,,,,,
,,,,,,,,,,,,,,,,TestWords/KAI_LAY_TA.wav,,5592fd82fdf99b59a8fb1e61,2021-07-14_07h03.55.548,Agingstudy,2020.2.10,Win32,60,,,,,E,,,,,,,,,,,,,,,1,1,0.4875,0,33,33,33,1,1,OLD,OLD,,,,,,,,
,,,,,,,,,,,,,,,,TestWords/RAY_PA_TI.wav,,5592fd82fdf99b59a8fb1e61,2021-07-14_07h03.55.548,Agingstudy,2020.2.10,Win32,60,,,,,E,,,,,,,,,,,,,,,2,0,1.4345,0,34,34,34,1,1,OLD,OLD,,,,,,,,
,,,,,,,,,,,,,,,,TestWords/GA_MU_ZI.wav,,5592fd82fdf99b59a8fb1e61,2021-07-14_07h03.55.548,Agingstudy,2020.2.10,Win32,60,,,,,E,,,,,,,,,,,,,,,1,1,0.436,0,35,35,35,1,1,OLD,OLD,,,,,,,,
,,,,,,,,,,,,,,,,TestWords/GI_SA_TAI.wav,,5592fd82fdf99b59a8fb1e61,2021-07-14_07h03.55.548,Agingstudy,2020.2.10,Win32,60,,,,,E,,,,,,,,,,,,,,,2,1,2.2034,0,36,36,36,1,2,NEW,SIMILAR,,,,,,,,
,,,,,,,,,,,,,,,,TestWords/KO_SU_FAI.wav,,5592fd82fdf99b59a8fb1e61,2021-07-14_07h03.55.548,Agingstudy,2020.2.10,Win32,60,,,,,E,,,,,,,,,,,,,,,2,0,0.9186,0,37,37,37,1,1,OLD,OLD,,,,,,,,
,,,,,,,,,,,,,,,,TestWords/LI_KAY_BA.wav,,5592fd82fdf99b59a8fb1e61,2021-07-14_07h03.55.548,Agingstudy,2020.2.10,Win32,60,,,,,E,,,,,,,,,,,,,,,1,0,0.4114,0,38,38,38,1,2,NEW,SIMILAR,,,,,,,,
,,,,,,,,,,,,,,,,TestWords/NA_WAI_VU.wav,,5592fd82fdf99b59a8fb1e61,2021-07-14_07h03.55.548,Agingstudy,2020.2.10,Win32,60,,,,,E,,,,,,,,,,,,,,,1,0,0.6011,0,39,39,39,1,2,NEW,SIMILAR,,,,,,,,
,,,,,,,,,,,,,,,,TestWords/KAI_LAY_TA.wav,,5592fd82fdf99b59a8fb1e61,2021-07-14_07h03.55.548,Agingstudy,2020.2.10,Win32,60,,,,,E,,,,,,,,,,,,,,,1,1,0.5194,0,40,40,40,1,1,OLD,OLD,,,,,,,,
,,,,,,,,,,,,,,,,TestWords/RAY_PA_TI.wav,,5592fd82fdf99b59a8fb1e61,2021-07-14_07h03.55.548,Agingstudy,2020.2.10,Win32,60,,,,,E,,,,,,,,,,,,,,,2,0,2.0746,0,41,41,41,1,1,OLD,OLD,,,,,,,,
,,,,,,,,,,,,,,,,TestWords/PU_DAY_MO.wav,,5592fd82fdf99b59a8fb1e61,2021-07-14_07h03.55.548,Agingstudy,2020.2.10,Win32,60,,,,,E,,,,,,,,,,,,,,,2,1,0.5338,0,42,42,42,1,2,NEW,SIMILAR,,,,,,,,
,,,,,,,,,,,,,,,,TestWords/GA_MU_ZI.wav,,5592fd82fdf99b59a8fb1e61,2021-07-14_07h03.55.548,Agingstudy,2020.2.10,Win32,60,,,,,E,,,,,,,,,,,,,,,2,0,1.5022,0,43,43,43,1,1,OLD,OLD,,,,,,,,
,,,,,,,,,,,,,,,,TestWords/DAI_RU_CHI.wav,,5592fd82fdf99b59a8fb1e61,2021-07-14_07h03.55.548,Agingstudy,2020.2.10,Win32,60,,,,,E,,,,,,,,,,,,,,,1,1,3.564,0,44,44,44,1,1,OLD,OLD,,,,,,,,
,,,,,,,,,,,,,,,,TestWords/GI_TAI_SA.wav,,5592fd82fdf99b59a8fb1e61,2021-07-14_07h03.55.548,Agingstudy,2020.2.10,Win32,60,,,,,E,,,,,,,,,,,,,,,2,1,1.4047,0,45,45,45,1,2,NEW,SIMILAR,,,,,,,,
,,,,,,,,,,,,,,,,TestWords/KO_SU_FAI.wav,,5592fd82fdf99b59a8fb1e61,2021-07-14_07h03.55.548,Agingstudy,2020.2.10,Win32,60,,,,,E,,,,,,,,,,,,,,,2,0,2.4467,0,46,46,46,1,1,OLD,OLD,,,,,,,,
,,,,,,,,,,,,,,,,TestWords/WAI_RO_JU.wav,,5592fd82fdf99b59a8fb1e61,2021-07-14_07h03.55.548,Agingstudy,2020.2.10,Win32,60,,,,,E,,,,,,,,,,,,,,,1,0,0.7193,0,47,47,47,1,2,NEW,NEW,,,,,,,,
,,,,,,,,,,,,,,,,TestWords/KAI_LAY_TA.wav,,5592fd82fdf99b59a8fb1e61,2021-07-14_07h03.55.548,Agingstudy,2020.2.10,Win32,60,,,,,E,,,,,,,,,,,,,,,1,1,0.4687,0,48,48,48,1,1,OLD,OLD,,,,,,,,
,,,,,,,,,,,,,,,,TestWords/DAI_RU_CHI.wav,,5592fd82fdf99b59a8fb1e61,2021-07-14_07h03.55.548,Agingstudy,2020.2.10,Win32,60,,,,,E,,,,,,,,,,,,,,,1,1,0.9408,0,49,49,49,1,1,OLD,OLD,,,,,,,,
,,,,,,,,,,,,,,,,TestWords/RAY_PA_TI.wav,,5592fd82fdf99b59a8fb1e61,2021-07-14_07h03.55.548,Agingstudy,2020.2.10,Win32,60,,,,,E,,,,,,,,,,,,,,,1,1,1.7753,0,50,50,50,1,1,OLD,OLD,,,,,,,,
,,,,,,,,,,,,,,,,TestWords/SA_TAI_GI.wav,,5592fd82fdf99b59a8fb1e61,2021-07-14_07h03.55.548,Agingstudy,2020.2.10,Win32,60,,,,,E,,,,,,,,,,,,,,,2,1,0.331,0,51,51,51,1,2,NEW,SIMILAR,,,,,,,,
,,,,,,,,,,,,,,,,TestWords/KO_SU_FAI.wav,,5592fd82fdf99b59a8fb1e61,2021-07-14_07h03.55.548,Agingstudy,2020.2.10,Win32,60,,,,,E,,,,,,,,,,,,,,,2,0,1.0009,0,52,52,52,1,1,OLD,OLD,,,,,,,,
,,,,,,,,,,,,,,,,TestWords/PU_MO_DAY.wav,,5592fd82fdf99b59a8fb1e61,2021-07-14_07h03.55.548,Agingstudy,2020.2.10,Win32,60,,,,,E,,,,,,,,,,,,,,,2,1,0.5843,0,53,53,53,1,2,NEW,SIMILAR,,,,,,,,
,,,,,,,,,,,,,,,,TestWords/GA_MU_ZI.wav,,5592fd82fdf99b59a8fb1e61,2021-07-14_07h03.55.548,Agingstudy,2020.2.10,Win32,60,,,,,E,,,,,,,,,,,,,,,2,0,0.7352,0,54,54,54,1,1,OLD,OLD,,,,,,,,
,,,,,,,,,,,,,,,,TestWords/KAI_LAY_TA.wav,,5592fd82fdf99b59a8fb1e61,2021-07-14_07h03.55.548,Agingstudy,2020.2.10,Win32,60,,,,,E,,,,,,,,,,,,,,,1,1,0.2257,0,55,55,55,1,1,OLD,OLD,,,,,,,,
,,,,,,,,,,,,,,,,TestWords/SA_GI_TAI.wav,,5592fd82fdf99b59a8fb1e61,2021-07-14_07h03.55.548,Agingstudy,2020.2.10,Win32,60,,,,,E,,,,,,,,,,,,,,,2,1,0.6271,0,56,56,56,1,2,NEW,SIMILAR,,,,,,,,
,,,,,,,,,,,,,,,,TestWords/RAY_PA_TI.wav,,5592fd82fdf99b59a8fb1e61,2021-07-14_07h03.55.548,Agingstudy,2020.2.10,Win32,60,,,,,E,,,,,,,,,,,,,,,1,1,1.2343,0,57,57,57,1,1,OLD,OLD,,,,,,,,
,,,,,,,,,,,,,,,,TestWords/DAI_RU_CHI.wav,,5592fd82fdf99b59a8fb1e61,2021-07-14_07h03.55.548,Agingstudy,2020.2.10,Win32,60,,,,,E,,,,,,,,,,,,,,,1,1,0.6195,0,58,58,58,1,1,OLD,OLD,,,,,,,,
,,,,,,,,,,,,,,,,TestWords/KO_SU_FAI.wav,,5592fd82fdf99b59a8fb1e61,2021-07-14_07h03.55.548,Agingstudy,2020.2.10,Win32,60,,,,,E,,,,,,,,,,,,,,,2,0,0.4136,0,59,59,59,1,1,OLD,OLD,,,,,,,,
,,,,,,,,,,,,,,,,TestWords/ZO_RAI_FU.wav,,5592fd82fdf99b59a8fb1e61,2021-07-14_07h03.55.548,Agingstudy,2020.2.10,Win32,60,,,,,E,,,,,,,,,,,,,,,2,1,0.852,0,60,60,60,1,2,NEW,NEW,,,,,,,,
,,,,,,,,,,,,,,,,TestWords/KAI_LAY_TA.wav,,5592fd82fdf99b59a8fb1e61,2021-07-14_07h03.55.548,Agingstudy,2020.2.10,Win32,60,,,,,E,,,,,,,,,,,,,,,1,1,0.1701,0,61,61,61,1,1,OLD,OLD,,,,,,,,
,,,,,,,,,,,,,,,,TestWords/GA_MU_ZI.wav,,5592fd82fdf99b59a8fb1e61,2021-07-14_07h03.55.548,Agingstudy,2020.2.10,Win32,60,,,,,E,,,,,,,,,,,,,,,1,1,0.6359,0,62,62,62,1,1,OLD,OLD,,,,,,,,
,,,,,,,,,,,,,,,,TestWords/TAI_GI_SA.wav,,5592fd82fdf99b59a8fb1e61,2021-07-14_07h03.55.548,Agingstudy,2020.2.10,Win32,60,,,,,E,,,,,,,,,,,,,,,2,1,0.4486,0,63,63,63,1,2,NEW,SIMILAR,,,,,,,,
,,,,,,,,,,,,,,,,TestWords/RAY_PA_TI.wav,,5592fd82fdf99b59a8fb1e61,2021-07-14_07h03.55.548,Agingstudy,2020.2.10,Win32,60,,,,,E,,,,,,,,,,,,,,,1,1,0.5355,0,64,64,64,1,1,OLD,OLD,,,,,,,,
,,,,,,,,,,,,,,,,TestWords/DAY_PU_MO.wav,,5592fd82fdf99b59a8fb1e61,2021-07-14_07h03.55.548,Agingstudy,2020.2.10,Win32,60,,,,,E,,,,,,,,,,,,,,,2,1,0.3699,0,65,65,65,1,2,NEW,SIMILAR,,,,,,,,
,,,,,,,,,,,,,,,,TestWords/KO_SU_FAI.wav,,5592fd82fdf99b59a8fb1e61,2021-07-14_07h03.55.548,Agingstudy,2020.2.10,Win32,60,,,,,E,,,,,,,,,,,,,,,2,0,1.0768,0,66,66,66,1,1,OLD,OLD,,,,,,,,
,,,,,,,,,,,,,,,,TestWords/DAI_RU_CHI.wav,,5592fd82fdf99b59a8fb1e61,2021-07-14_07h03.55.548,Agingstudy,2020.2.10,Win32,60,,,,,E,,,,,,,,,,,,,,,2,0,0.6032,0,67,67,67,1,1,OLD,OLD,,,,,,,,
,,,,,,,,,,,,,,,,TestWords/KAI_LAY_TA.wav,,5592fd82fdf99b59a8fb1e61,2021-07-14_07h03.55.548,Agingstudy,2020.2.10,Win32,60,,,,,E,,,,,,,,,,,,,,,1,1,0.2137,0,68,68,68,1,1,OLD,OLD,,,,,,,,
,,,,,,,,,,,,,,,,TestWords/SI_VAI_CHU.wav,,5592fd82fdf99b59a8fb1e61,2021-07-14_07h03.55.548,Agingstudy,2020.2.10,Win32,60,,,,,E,,,,,,,,,,,,,,,2,1,0.785,0,69,69,69,1,2,NEW,NEW,,,,,,,,
,,,,,,,,,,,,,,,,TestWords/GA_MU_ZI.wav,,5592fd82fdf99b59a8fb1e61,2021-07-14_07h03.55.548,Agingstudy,2020.2.10,Win32,60,,,,,E,,,,,,,,,,,,,,,2,0,0.836,0,70,70,70,1,1,OLD,OLD,,,,,,,,
,,,,,,,,,,,,,,,,TestWords/KO_SU_FAI.wav,,5592fd82fdf99b59a8fb1e61,2021-07-14_07h03.55.548,Agingstudy,2020.2.10,Win32,60,,,,,E,,,,,,,,,,,,,,,1,1,0.7229,0,71,71,71,1,1,OLD,OLD,,,,,,,,
,,,,,,,,,,,,,,,,TestWords/RAI_FU_ZO.wav,,5592fd82fdf99b59a8fb1e61,2021-07-14_07h03.55.548,Agingstudy,2020.2.10,Win32,60,,,,,E,,,,,,,,,,,,,,,2,1,0.4523,0,72,72,72,1,2,NEW,SIMILAR,,,,,,,,
,,,,,,,,,,,,,,,,TestWords/KAI_LAY_TA.wav,,5592fd82fdf99b59a8fb1e61,2021-07-14_07h03.55.548,Agingstudy,2020.2.10,Win32,60,,,,,E,,,,,,,,,,,,,,,1,1,0.2371,0,73,73,73,1,1,OLD,OLD,,,,,,,,
,,,,,,,,,,,,,,,,TestWords/RAY_PA_TI.wav,,5592fd82fdf99b59a8fb1e61,2021-07-14_07h03.55.548,Agingstudy,2020.2.10,Win32,60,,,,,E,,,,,,,,,,,,,,,1,1,0.4516,0,74,74,74,1,1,OLD,OLD,,,,,,,,
,,,,,,,,,,,,,,,,TestWords/DAI_RU_CHI.wav,,5592fd82fdf99b59a8fb1e61,2021-07-14_07h03.55.548,Agingstudy,2020.2.10,Win32,60,,,,,E,,,,,,,,,,,,,,,1,1,0.5202,0,75,75,75,1,1,OLD,OLD,,,,,,,,
,,,,,,,,,,,,,,,,TestWords/MO_PU_DAY.wav,,5592fd82fdf99b59a8fb1e61,2021-07-14_07h03.55.548,Agingstudy,2020.2.10,Win32,60,,,,,E,,,,,,,,,,,,,,,2,1,0.3838,0,76,76,76,1,2,NEW,SIMILAR,,,,,,,,
,,,,,,,,,,,,,,,,TestWords/GA_MU_ZI.wav,,5592fd82fdf99b59a8fb1e61,2021-07-14_07h03.55.548,Agingstudy,2020.2.10,Win32,60,,,,,E,,,,,,,,,,,,,,,2,0,0.8695,0,77,77,77,1,1,OLD,OLD,,,,,,,,
,,,,,,,,,,,,,,,,TestWords/KO_SU_FAI.wav,,5592fd82fdf99b59a8fb1e61,2021-07-14_07h03.55.548,Agingstudy,2020.2.10,Win32,60,,,,,E,,,,,,,,,,,,,,,2,0,0.3036,0,78,78,78,1,1,OLD,OLD,,,,,,,,
,,,,,,,,,,,,,,,,TestWords/NO_WA_BAY.wav,,5592fd82fdf99b59a8fb1e61,2021-07-14_07h03.55.548,Agingstudy,2020.2.10,Win32,60,,,,,E,,,,,,,,,,,,,,,2,1,0.451,0,79,79,79,1,2,NEW,NEW,,,,,,,,
,,,,,,,,,,,,,,,,TestWords/KAI_LAY_TA.wav,,5592fd82fdf99b59a8fb1e61,2021-07-14_07h03.55.548,Agingstudy,2020.2.10,Win32,60,,,,,E,,,,,,,,,,,,,,,1,1,0.1681,0,80,80,80,1,1,OLD,OLD,,,,,,,,
,,,,,,,,,,,,,,,,TestWords/RAY_PA_TI.wav,,5592fd82fdf99b59a8fb1e61,2021-07-14_07h03.55.548,Agingstudy,2020.2.10,Win32,60,,,,,E,,,,,,,,,,,,,,,1,1,0.3524,0,81,81,81,1,1,OLD,OLD,,,,,,,,
,,,,,,,,,,,,,,,,TestWords/RAI_ZO_FU.wav,,5592fd82fdf99b59a8fb1e61,2021-07-14_07h03.55.548,Agingstudy,2020.2.10,Win32,60,,,,,E,,,,,,,,,,,,,,,2,1,0.7352,0,82,82,82,1,2,NEW,SIMILAR,,,,,,,,
,,,,,,,,,,,,,,,,TestWords/DAI_RU_CHI.wav,,5592fd82fdf99b59a8fb1e61,2021-07-14_07h03.55.548,Agingstudy,2020.2.10,Win32,60,,,,,E,,,,,,,,,,,,,,,2,0,1.3405,0,83,83,83,1,1,OLD,OLD,,,,,,,,
,,,,,,,,,,,,,,,,TestWords/HA_SI_JAI.wav,,5592fd82fdf99b59a8fb1e61,2021-07-14_07h03.55.548,Agingstudy,2020.2.10,Win32,60,,,,,E,,,,,,,,,,,,,,,2,1,0.5246,0,84,84,84,1,2,NEW,NEW,,,,,,,,
,,,,,,,,,,,,,,,,TestWords/KO_SU_FAI.wav,,5592fd82fdf99b59a8fb1e61,2021-07-14_07h03.55.548,Agingstudy,2020.2.10,Win32,60,,,,,E,,,,,,,,,,,,,,,2,0,0.5009,0,85,85,85,1,1,OLD,OLD,,,,,,,,
,,,,,,,,,,,,,,,,TestWords/KAI_LAY_TA.wav,,5592fd82fdf99b59a8fb1e61,2021-07-14_07h03.55.548,Agingstudy,2020.2.10,Win32,60,,,,,E,,,,,,,,,,,,,,,1,1,0.1639,0,86,86,86,1,1,OLD,OLD,,,,,,,,
,,,,,,,,,,,,,,,,TestWords/GA_MU_ZI.wav,,5592fd82fdf99b59a8fb1e61,2021-07-14_07h03.55.548,Agingstudy,2020.2.10,Win32,60,,,,,E,,,,,,,,,,,,,,,1,1,0.6136,0,87,87,87,1,1,OLD,OLD,,,,,,,,
,,,,,,,,,,,,,,,,TestWords/FU_ZO_RAI.wav,,5592fd82fdf99b59a8fb1e61,2021-07-14_07h03.55.548,Agingstudy,2020.2.10,Win32,60,,,,,E,,,,,,,,,,,,,,,2,1,0.5322,0,88,88,88,1,2,NEW,SIMILAR,,,,,,,,
,,,,,,,,,,,,,,,,TestWords/KO_SU_FAI.wav,,5592fd82fdf99b59a8fb1e61,2021-07-14_07h03.55.548,Agingstudy,2020.2.10,Win32,60,,,,,E,,,,,,,,,,,,,,,2,0,0.8673,0,89,89,89,1,1,OLD,OLD,,,,,,,,
,,,,,,,,,,,,,,,,TestWords/KAI_LAY_TA.wav,,5592fd82fdf99b59a8fb1e61,2021-07-14_07h03.55.548,Agingstudy,2020.2.10,Win32,60,,,,,E,,,,,,,,,,,,,,,1,1,0.1573,0,90,90,90,1,1,OLD,OLD,,,,,,,,
,,,,,,,,,,,,,,,,TestWords/DAI_RU_CHI.wav,,5592fd82fdf99b59a8fb1e61,2021-07-14_07h03.55.548,Agingstudy,2020.2.10,Win32,60,,,,,E,,,,,,,,,,,,,,,1,1,0.3798,0,91,91,91,1,1,OLD,OLD,,,,,,,,
,,,,,,,,,,,,,,,,TestWords/HI_NAY_VA.wav,,5592fd82fdf99b59a8fb1e61,2021-07-14_07h03.55.548,Agingstudy,2020.2.10,Win32,60,,,,,E,,,,,,,,,,,,,,,2,1,0.6567,0,92,92,92,1,2,NEW,NEW,,,,,,,,
,,,,,,,,,,,,,,,,TestWords/GU_CHAI_PI.wav,,5592fd82fdf99b59a8fb1e61,2021-07-14_07h03.55.548,Agingstudy,2020.2.10,Win32,60,,,,,E,,,,,,,,,,,,,,,1,0,0.9849,0,93,93,93,1,2,NEW,NEW,,,,,,,,
,,,,,,,,,,,,,,,,TestWords/FU_RAI_ZO.wav,,5592fd82fdf99b59a8fb1e61,2021-07-14_07h03.55.548,Agingstudy,2020.2.10,Win32,60,,,,,E,,,,,,,,,,,,,,,2,1,0.4055,0,94,94,94,1,2,NEW,SIMILAR,,,,,,,,
,,,,,,,,,,,,,,,,TestWords/KO_SU_FAI.wav,,5592fd82fdf99b59a8fb1e61,2021-07-14_07h03.55.548,Agingstudy,2020.2.10,Win32,60,,,,,E,,,,,,,,,,,,,,,2,0,1.8439,0,95,95,95,1,1,OLD,OLD,,,,,,,,
,,,,,,,,,,,,,,,,TestWords/PAI_LU_WA.wav,,5592fd82fdf99b59a8fb1e61,2021-07-14_07h03.55.548,Agingstudy,2020.2.10,Win32,60,,,,,E,,,,,,,,,,,,,,,2,1,0.4851,0,96,96,96,1,2,NEW,NEW,,,,,,,,
,,,,,,,,,,,,,,,,TestWords/DAI_RU_CHI.wav,,5592fd82fdf99b59a8fb1e61,2021-07-14_07h03.55.548,Agingstudy,2020.2.10,Win32,60,,,,,E,,,,,,,,,,,,,,,1,1,0.2973,0,97,97,97,1,1,OLD,OLD,,,,,,,,
,,,,,,,,,,,,,,,,TestWords/FI_GU_CHA.wav,,5592fd82fdf99b59a8fb1e61,2021-07-14_07h03.55.548,Agingstudy,2020.2.10,Win32,60,,,,,E,,,,,,,,,,,,,,,2,1,0.401,0,98,98,98,1,2,NEW,NEW,,,,,,,,
,,,,,,,,,,,,,,,,TestWords/ZO_FU_RAI.wav,,5592fd82fdf99b59a8fb1e61,2021-07-14_07h03.55.548,Agingstudy,2020.2.10,Win32,60,,,,,E,,,,,,,,,,,,,,,2,1,1.5024,0,99,99,99,1,2,NEW,SIMILAR,,,,,,,,
,,,,,,,,,,,,,,,,,,5592fd82fdf99b59a8fb1e61,2021-07-14_07h03.55.548,Agingstudy,2020.2.10,Win32,60,,,,,,,,,,,,,,,,,,,,,,,,,,,,,,,0,0,0,0,1,,,
,,,,,,,,,,,,,,,,,,5592fd82fdf99b59a8fb1e61,2021-07-14_07h03.55.548,Agingstudy,2020.2.10,Win32,60,,,,,,,,,,,,,,,,,,,,,,,,,,,,,,,,,,,,return,45.1131,interesting but quite difficult
