Welcome0Continue.keys,Welcome0Continue.rt,SoundCheckBegin.keys,SoundCheckBegin.rt,SoundCheckEndKey.keys,SoundCheckEndKey.rt,HeadphoneContinueKey.keys,HeadphoneContinueKey.rt,CheckResp.keys,CheckResp.corr,CheckResp.rt,HeadphoneLoop.thisRepN,HeadphoneLoop.thisTrialN,HeadphoneLoop.thisN,HeadphoneLoop.thisIndex,HeadphoneLoop.ran,File,Correct,participant,date,expName,psychopyVersion,OS,frameRate,ContinueKey8.keys,ContinueKey8.rt,MSTWelcomeContKey.keys,MSTWelcomeContKey.rt,Condition,MSTTrainIntroKey.keys,MSTTrainIntroKey.rt,MSTTrainKeys.keys,MSTTrainKeys.corr,MSTTrainKeys.rt,MSTTrainLoop.thisRepN,MSTTrainLoop.thisTrialN,MSTTrainLoop.thisN,MSTTrainLoop.thisIndex,MSTTrainLoop.ran,SoundFile,Type,MSTTestBeginKey.keys,MSTTestBeginKey.rt,MST_resp.keys,MST_resp.corr,MST_resp.rt,MSTPlayLoop.thisRepN,MSTPlayLoop.thisTrialN,MSTPlayLoop.thisN,MSTPlayLoop.thisIndex,MSTPlayLoop.ran,WordCorrect,Correct_type,WordType,MSTLoop.thisRepN,MSTLoop.thisTrialN,MSTLoop.thisN,MSTLoop.thisIndex,MSTLoop.ran,EndAllKey.keys,EndAllKey.rt,FeedbackResp.text
space,79.2543,space,14.9374,space,5.333,space,19.7326,2,1,4.3566,0,0,0,3,1,Headphone/t2_2.wav,2,60d7de8c5f5bcb8332d5e1a0,2021-07-14_02h22.39.076,Agingstudy,2020.2.10,Win32,60,,,,,,,,,,,,,,,,,,,,,,,,,,,,,,,,,,,,,,
,,,,,,,,2,1,2.2588,0,1,1,2,1,Headphone/t2_1.wav,2,60d7de8c5f5bcb8332d5e1a0,2021-07-14_02h22.39.076,Agingstudy,2020.2.10,Win32,60,,,,,,,,,,,,,,,,,,,,,,,,,,,,,,,,,,,,,,
,,,,,,,,3,1,2.8409,0,2,2,4,1,Headphone/t3_1.wav,3,60d7de8c5f5bcb8332d5e1a0,2021-07-14_02h22.39.076,Agingstudy,2020.2.10,Win32,60,,,,,,,,,,,,,,,,,,,,,,,,,,,,,,,,,,,,,,
,,,,,,,,3,1,1.9561,0,3,3,5,1,Headphone/t3_2.wav,3,60d7de8c5f5bcb8332d5e1a0,2021-07-14_02h22.39.076,Agingstudy,2020.2.10,Win32,60,,,,,,,,,,,,,,,,,,,,,,,,,,,,,,,,,,,,,,
,,,,,,,,1,1,1.5592,0,4,4,1,1,Headphone/t1_2.wav,1,60d7de8c5f5bcb8332d5e1a0,2021-07-14_02h22.39.076,Agingstudy,2020.2.10,Win32,60,,,,,,,,,,,,,,,,,,,,,,,,,,,,,,,,,,,,,,
,,,,,,,,1,1,1.621,0,5,5,0,1,Headphone/t1_1.wav,1,60d7de8c5f5bcb8332d5e1a0,2021-07-14_02h22.39.076,Agingstudy,2020.2.10,Win32,60,,,,,,,,,,,,,,,,,,,,,,,,,,,,,,,,,,,,,,
,,,,,,,,,,,,,,,,,2,60d7de8c5f5bcb8332d5e1a0,2021-07-14_02h22.39.076,Agingstudy,2020.2.10,Win32,60,space,22.5865,space,9.5823,1,space,7.1535,2,1,10.0476,0,0,0,0,1,Training/FO_YI_LAY.wav,NEW,,,,,,,,,,,,,,,,,,,,,
,,,,,,,,,,,,,,,,,1,60d7de8c5f5bcb8332d5e1a0,2021-07-14_02h22.39.076,Agingstudy,2020.2.10,Win32,60,,,,,,,,1,1,4.8664,0,1,1,1,1,Training/FO_YI_LAY.wav,OLD,,,,,,,,,,,,,,,,,,,,,
,,,,,,,,,,,,,,,,,2,60d7de8c5f5bcb8332d5e1a0,2021-07-14_02h22.39.076,Agingstudy,2020.2.10,Win32,60,,,,,,,,2,1,3.0218,0,2,2,2,1,Training/YO_BU_JAY.wav,NEW,,,,,,,,,,,,,,,,,,,,,
,,,,,,,,,,,,,,,,,2,60d7de8c5f5bcb8332d5e1a0,2021-07-14_02h22.39.076,Agingstudy,2020.2.10,Win32,60,,,,,,,,2,1,4.2027,0,3,3,3,1,Training/JAY_YO_BU.wav,SIMILAR,,,,,,,,,,,,,,,,,,,,,
,,,,,,,,,,,,,,,,,1,60d7de8c5f5bcb8332d5e1a0,2021-07-14_02h22.39.076,Agingstudy,2020.2.10,Win32,60,,,,,,,,1,1,2.6464,0,4,4,4,1,Training/FO_YI_LAY.wav,OLD,,,,,,,,,,,,,,,,,,,,,
,,,,,,,,,,,,,,,,TestWords/LU_HAI_BO.wav,,60d7de8c5f5bcb8332d5e1a0,2021-07-14_02h22.39.076,Agingstudy,2020.2.10,Win32,60,,,,,B,,,,,,,,,,,,,space,13.0369,2,1,3.1355,0,0,0,0,1,2,NEW,NEW,,,,,,,,
,,,,,,,,,,,,,,,,TestWords/CHU_LA_PAY.wav,,60d7de8c5f5bcb8332d5e1a0,2021-07-14_02h22.39.076,Agingstudy,2020.2.10,Win32,60,,,,,B,,,,,,,,,,,,,,,2,1,2.452,0,1,1,1,1,2,NEW,NEW,,,,,,,,
,,,,,,,,,,,,,,,,TestWords/RAY_PA_TI.wav,,60d7de8c5f5bcb8332d5e1a0,2021-07-14_02h22.39.076,Agingstudy,2020.2.10,Win32,60,,,,,B,,,,,,,,,,,,,,,2,1,1.9443,0,2,2,2,1,2,NEW,NEW,,,,,,,,
,,,,,,,,,,,,,,,,TestWords/DA_CHU_VAI.wav,,60d7de8c5f5bcb8332d5e1a0,2021-07-14_02h22.39.076,Agingstudy,2020.2.10,Win32,60,,,,,B,,,,,,,,,,,,,,,2,1,2.2535,0,3,3,3,1,2,NEW,NEW,,,,,,,,
,,,,,,,,,,,,,,,,TestWords/DAY_PU_MO.wav,,60d7de8c5f5bcb8332d5e1a0,2021-07-14_02h22.39.076,Agingstudy,2020.2.10,Win32,60,,,,,B,,,,,,,,,,,,,,,2,1,3.2878,0,4,4,4,1,2,NEW,NEW,,,,,,,,
,,,,,,,,,,,,,,,,TestWords/DAI_RU_CHI.wav,,60d7de8c5f5bcb8332d5e1a0,2021-07-14_02h22.39.076,Agingstudy,2020.2.10,Win32,60,,,,,B,,,,,,,,,,,,,,,2,1,3.2886,0,5,5,5,1,2,NEW,NEW,,,,,,,,
,,,,,,,,,,,,,,,,TestWords/RAI_ZO_FU.wav,,60d7de8c5f5bcb8332d5e1a0,2021-07-14_02h22.39.076,Agingstudy,2020.2.10,Win32,60,,,,,B,,,,,,,,,,,,,,,2,1,3.4837,0,6,6,6,1,2,NEW,NEW,,,,,,,,
,,,,,,,,,,,,,,,,TestWords/HO_NAY_VA.wav,,60d7de8c5f5bcb8332d5e1a0,2021-07-14_02h22.39.076,Agingstudy,2020.2.10,Win32,60,,,,,B,,,,,,,,,,,,,,,2,1,2.0139,0,7,7,7,1,2,NEW,NEW,,,,,,,,
,,,,,,,,,,,,,,,,TestWords/RAY_PA_TI.wav,,60d7de8c5f5bcb8332d5e1a0,2021-07-14_02h22.39.076,Agingstudy,2020.2.10,Win32,60,,,,,B,,,,,,,,,,,,,,,1,1,2.7883,0,8,8,8,1,1,OLD,OLD,,,,,,,,
,,,,,,,,,,,,,,,,TestWords/DAY_MO_PU.wav,,60d7de8c5f5bcb8332d5e1a0,2021-07-14_02h22.39.076,Agingstudy,2020.2.10,Win32,60,,,,,B,,,,,,,,,,,,,,,1,0,6.5871,0,9,9,9,1,2,NEW,SIMILAR,,,,,,,,
,,,,,,,,,,,,,,,,TestWords/TAI_SA_GI.wav,,60d7de8c5f5bcb8332d5e1a0,2021-07-14_02h22.39.076,Agingstudy,2020.2.10,Win32,60,,,,,B,,,,,,,,,,,,,,,2,1,1.8567,0,10,10,10,1,2,NEW,NEW,,,,,,,,
,,,,,,,,,,,,,,,,TestWords/DAI_RU_CHI.wav,,60d7de8c5f5bcb8332d5e1a0,2021-07-14_02h22.39.076,Agingstudy,2020.2.10,Win32,60,,,,,B,,,,,,,,,,,,,,,2,0,2.1187,0,11,11,11,1,1,OLD,OLD,,,,,,,,
,,,,,,,,,,,,,,,,TestWords/GA_MU_ZI.wav,,60d7de8c5f5bcb8332d5e1a0,2021-07-14_02h22.39.076,Agingstudy,2020.2.10,Win32,60,,,,,B,,,,,,,,,,,,,,,1,0,3.1682,0,12,12,12,1,2,NEW,NEW,,,,,,,,
,,,,,,,,,,,,,,,,TestWords/ZO_RAI_FU.wav,,60d7de8c5f5bcb8332d5e1a0,2021-07-14_02h22.39.076,Agingstudy,2020.2.10,Win32,60,,,,,B,,,,,,,,,,,,,,,2,1,1.9036,0,13,13,13,1,2,NEW,SIMILAR,,,,,,,,
,,,,,,,,,,,,,,,,TestWords/RAY_PA_TI.wav,,60d7de8c5f5bcb8332d5e1a0,2021-07-14_02h22.39.076,Agingstudy,2020.2.10,Win32,60,,,,,B,,,,,,,,,,,,,,,1,1,1.9339,0,14,14,14,1,1,OLD,OLD,,,,,,,,
,,,,,,,,,,,,,,,,TestWords/FI_GU_CHA.wav,,60d7de8c5f5bcb8332d5e1a0,2021-07-14_02h22.39.076,Agingstudy,2020.2.10,Win32,60,,,,,B,,,,,,,,,,,,,,,2,1,2.4905,0,15,15,15,1,2,NEW,NEW,,,,,,,,
,,,,,,,,,,,,,,,,TestWords/MO_DAY_PU.wav,,60d7de8c5f5bcb8332d5e1a0,2021-07-14_02h22.39.076,Agingstudy,2020.2.10,Win32,60,,,,,B,,,,,,,,,,,,,,,2,1,1.9729,0,16,16,16,1,2,NEW,SIMILAR,,,,,,,,
,,,,,,,,,,,,,,,,TestWords/GI_SA_TAI.wav,,60d7de8c5f5bcb8332d5e1a0,2021-07-14_02h22.39.076,Agingstudy,2020.2.10,Win32,60,,,,,B,,,,,,,,,,,,,,,2,1,1.8003,0,17,17,17,1,2,NEW,SIMILAR,,,,,,,,
,,,,,,,,,,,,,,,,TestWords/FU_RAI_ZO.wav,,60d7de8c5f5bcb8332d5e1a0,2021-07-14_02h22.39.076,Agingstudy,2020.2.10,Win32,60,,,,,B,,,,,,,,,,,,,,,2,1,1.9035,0,18,18,18,1,2,NEW,SIMILAR,,,,,,,,
,,,,,,,,,,,,,,,,TestWords/DAI_RU_CHI.wav,,60d7de8c5f5bcb8332d5e1a0,2021-07-14_02h22.39.076,Agingstudy,2020.2.10,Win32,60,,,,,B,,,,,,,,,,,,,,,1,1,2.0731,0,19,19,19,1,1,OLD,OLD,,,,,,,,
,,,,,,,,,,,,,,,,TestWords/KO_SU_FAI.wav,,60d7de8c5f5bcb8332d5e1a0,2021-07-14_02h22.39.076,Agingstudy,2020.2.10,Win32,60,,,,,B,,,,,,,,,,,,,,,2,1,1.9673,0,20,20,20,1,2,NEW,NEW,,,,,,,,
,,,,,,,,,,,,,,,,TestWords/GA_MU_ZI.wav,,60d7de8c5f5bcb8332d5e1a0,2021-07-14_02h22.39.076,Agingstudy,2020.2.10,Win32,60,,,,,B,,,,,,,,,,,,,,,1,1,0.8593,0,21,21,21,1,1,OLD,OLD,,,,,,,,
,,,,,,,,,,,,,,,,TestWords/RAY_PA_TI.wav,,60d7de8c5f5bcb8332d5e1a0,2021-07-14_02h22.39.076,Agingstudy,2020.2.10,Win32,60,,,,,B,,,,,,,,,,,,,,,1,1,2.6054,0,22,22,22,1,1,OLD,OLD,,,,,,,,
,,,,,,,,,,,,,,,,TestWords/PU_DAY_MO.wav,,60d7de8c5f5bcb8332d5e1a0,2021-07-14_02h22.39.076,Agingstudy,2020.2.10,Win32,60,,,,,B,,,,,,,,,,,,,,,1,0,2.0899,0,23,23,23,1,2,NEW,SIMILAR,,,,,,,,
,,,,,,,,,,,,,,,,TestWords/GI_TAI_SA.wav,,60d7de8c5f5bcb8332d5e1a0,2021-07-14_02h22.39.076,Agingstudy,2020.2.10,Win32,60,,,,,B,,,,,,,,,,,,,,,2,1,1.8192,0,24,24,24,1,2,NEW,SIMILAR,,,,,,,,
,,,,,,,,,,,,,,,,TestWords/KO_SU_FAI.wav,,60d7de8c5f5bcb8332d5e1a0,2021-07-14_02h22.39.076,Agingstudy,2020.2.10,Win32,60,,,,,B,,,,,,,,,,,,,,,2,0,2.1262,0,25,25,25,1,1,OLD,OLD,,,,,,,,
,,,,,,,,,,,,,,,,TestWords/FU_ZO_RAI.wav,,60d7de8c5f5bcb8332d5e1a0,2021-07-14_02h22.39.076,Agingstudy,2020.2.10,Win32,60,,,,,B,,,,,,,,,,,,,,,2,1,1.7661,0,26,26,26,1,2,NEW,SIMILAR,,,,,,,,
,,,,,,,,,,,,,,,,TestWords/DAI_RU_CHI.wav,,60d7de8c5f5bcb8332d5e1a0,2021-07-14_02h22.39.076,Agingstudy,2020.2.10,Win32,60,,,,,B,,,,,,,,,,,,,,,1,1,1.347,0,27,27,27,1,1,OLD,OLD,,,,,,,,
,,,,,,,,,,,,,,,,TestWords/RAY_PA_TI.wav,,60d7de8c5f5bcb8332d5e1a0,2021-07-14_02h22.39.076,Agingstudy,2020.2.10,Win32,60,,,,,B,,,,,,,,,,,,,,,1,1,1.2545,0,28,28,28,1,1,OLD,OLD,,,,,,,,
,,,,,,,,,,,,,,,,TestWords/GA_MU_ZI.wav,,60d7de8c5f5bcb8332d5e1a0,2021-07-14_02h22.39.076,Agingstudy,2020.2.10,Win32,60,,,,,B,,,,,,,,,,,,,,,1,1,1.5234,0,29,29,29,1,1,OLD,OLD,,,,,,,,
,,,,,,,,,,,,,,,,TestWords/WAI_VU_NA.wav,,60d7de8c5f5bcb8332d5e1a0,2021-07-14_02h22.39.076,Agingstudy,2020.2.10,Win32,60,,,,,B,,,,,,,,,,,,,,,2,1,3.5138,0,30,30,30,1,2,NEW,NEW,,,,,,,,
,,,,,,,,,,,,,,,,TestWords/SA_TAI_GI.wav,,60d7de8c5f5bcb8332d5e1a0,2021-07-14_02h22.39.076,Agingstudy,2020.2.10,Win32,60,,,,,B,,,,,,,,,,,,,,,2,1,1.9679,0,31,31,31,1,2,NEW,SIMILAR,,,,,,,,
,,,,,,,,,,,,,,,,TestWords/PU_MO_DAY.wav,,60d7de8c5f5bcb8332d5e1a0,2021-07-14_02h22.39.076,Agingstudy,2020.2.10,Win32,60,,,,,B,,,,,,,,,,,,,,,1,0,3.9139,0,32,32,32,1,2,NEW,SIMILAR,,,,,,,,
,,,,,,,,,,,,,,,,TestWords/KO_SU_FAI.wav,,60d7de8c5f5bcb8332d5e1a0,2021-07-14_02h22.39.076,Agingstudy,2020.2.10,Win32,60,,,,,B,,,,,,,,,,,,,,,2,0,0.77,0,33,33,33,1,1,OLD,OLD,,,,,,,,
,,,,,,,,,,,,,,,,TestWords/RAI_FU_ZO.wav,,60d7de8c5f5bcb8332d5e1a0,2021-07-14_02h22.39.076,Agingstudy,2020.2.10,Win32,60,,,,,B,,,,,,,,,,,,,,,2,1,1.6005,0,34,34,34,1,2,NEW,SIMILAR,,,,,,,,
,,,,,,,,,,,,,,,,TestWords/KAI_LAY_TA.wav,,60d7de8c5f5bcb8332d5e1a0,2021-07-14_02h22.39.076,Agingstudy,2020.2.10,Win32,60,,,,,B,,,,,,,,,,,,,,,2,1,0.6444,0,35,35,35,1,2,NEW,NEW,,,,,,,,
,,,,,,,,,,,,,,,,TestWords/RAY_PA_TI.wav,,60d7de8c5f5bcb8332d5e1a0,2021-07-14_02h22.39.076,Agingstudy,2020.2.10,Win32,60,,,,,B,,,,,,,,,,,,,,,1,1,0.4448,0,36,36,36,1,1,OLD,OLD,,,,,,,,
,,,,,,,,,,,,,,,,TestWords/WAI_NA_VU.wav,,60d7de8c5f5bcb8332d5e1a0,2021-07-14_02h22.39.076,Agingstudy,2020.2.10,Win32,60,,,,,B,,,,,,,,,,,,,,,1,0,1.125,0,37,37,37,1,2,NEW,SIMILAR,,,,,,,,
,,,,,,,,,,,,,,,,TestWords/GA_MU_ZI.wav,,60d7de8c5f5bcb8332d5e1a0,2021-07-14_02h22.39.076,Agingstudy,2020.2.10,Win32,60,,,,,B,,,,,,,,,,,,,,,1,1,1.1677,0,38,38,38,1,1,OLD,OLD,,,,,,,,
,,,,,,,,,,,,,,,,TestWords/MO_PU_DAY.wav,,60d7de8c5f5bcb8332d5e1a0,2021-07-14_02h22.39.076,Agingstudy,2020.2.10,Win32,60,,,,,B,,,,,,,,,,,,,,,1,0,0.6484,0,39,39,39,1,2,NEW,SIMILAR,,,,,,,,
,,,,,,,,,,,,,,,,TestWords/DAI_RU_CHI.wav,,60d7de8c5f5bcb8332d5e1a0,2021-07-14_02h22.39.076,Agingstudy,2020.2.10,Win32,60,,,,,B,,,,,,,,,,,,,,,1,1,0.399,0,40,40,40,1,1,OLD,OLD,,,,,,,,
,,,,,,,,,,,,,,,,TestWords/SA_GI_TAI.wav,,60d7de8c5f5bcb8332d5e1a0,2021-07-14_02h22.39.076,Agingstudy,2020.2.10,Win32,60,,,,,B,,,,,,,,,,,,,,,1,0,1.2347,0,41,41,41,1,2,NEW,SIMILAR,,,,,,,,
,,,,,,,,,,,,,,,,TestWords/KO_SU_FAI.wav,,60d7de8c5f5bcb8332d5e1a0,2021-07-14_02h22.39.076,Agingstudy,2020.2.10,Win32,60,,,,,B,,,,,,,,,,,,,,,2,0,1.5522,0,42,42,42,1,1,OLD,OLD,,,,,,,,
,,,,,,,,,,,,,,,,TestWords/ZO_FU_RAI.wav,,60d7de8c5f5bcb8332d5e1a0,2021-07-14_02h22.39.076,Agingstudy,2020.2.10,Win32,60,,,,,B,,,,,,,,,,,,,,,2,1,1.7189,0,43,43,43,1,2,NEW,SIMILAR,,,,,,,,
,,,,,,,,,,,,,,,,TestWords/KAI_LAY_TA.wav,,60d7de8c5f5bcb8332d5e1a0,2021-07-14_02h22.39.076,Agingstudy,2020.2.10,Win32,60,,,,,B,,,,,,,,,,,,,,,1,1,0.7792,0,44,44,44,1,1,OLD,OLD,,,,,,,,
,,,,,,,,,,,,,,,,TestWords/RAY_PA_TI.wav,,60d7de8c5f5bcb8332d5e1a0,2021-07-14_02h22.39.076,Agingstudy,2020.2.10,Win32,60,,,,,B,,,,,,,,,,,,,,,1,1,0.3345,0,45,45,45,1,1,OLD,OLD,,,,,,,,
,,,,,,,,,,,,,,,,TestWords/DAI_RU_CHI.wav,,60d7de8c5f5bcb8332d5e1a0,2021-07-14_02h22.39.076,Agingstudy,2020.2.10,Win32,60,,,,,B,,,,,,,,,,,,,,,1,1,0.3681,0,46,46,46,1,1,OLD,OLD,,,,,,,,
,,,,,,,,,,,,,,,,TestWords/VU_NA_WAI.wav,,60d7de8c5f5bcb8332d5e1a0,2021-07-14_02h22.39.076,Agingstudy,2020.2.10,Win32,60,,,,,B,,,,,,,,,,,,,,,1,0,1.0667,0,47,47,47,1,2,NEW,SIMILAR,,,,,,,,
,,,,,,,,,,,,,,,,TestWords/TAI_GI_SA.wav,,60d7de8c5f5bcb8332d5e1a0,2021-07-14_02h22.39.076,Agingstudy,2020.2.10,Win32,60,,,,,B,,,,,,,,,,,,,,,2,1,3.2561,0,48,48,48,1,2,NEW,SIMILAR,,,,,,,,
,,,,,,,,,,,,,,,,TestWords/GA_MU_ZI.wav,,60d7de8c5f5bcb8332d5e1a0,2021-07-14_02h22.39.076,Agingstudy,2020.2.10,Win32,60,,,,,B,,,,,,,,,,,,,,,1,1,0.4013,0,49,49,49,1,1,OLD,OLD,,,,,,,,
,,,,,,,,,,,,,,,,TestWords/KO_SU_FAI.wav,,60d7de8c5f5bcb8332d5e1a0,2021-07-14_02h22.39.076,Agingstudy,2020.2.10,Win32,60,,,,,B,,,,,,,,,,,,,,,1,1,0.6105,0,50,50,50,1,1,OLD,OLD,,,,,,,,
,,,,,,,,,,,,,,,,TestWords/KAI_LAY_TA.wav,,60d7de8c5f5bcb8332d5e1a0,2021-07-14_02h22.39.076,Agingstudy,2020.2.10,Win32,60,,,,,B,,,,,,,,,,,,,,,2,0,1.491,0,51,51,51,1,1,OLD,OLD,,,,,,,,
,,,,,,,,,,,,,,,,TestWords/HA_SI_JAI.wav,,60d7de8c5f5bcb8332d5e1a0,2021-07-14_02h22.39.076,Agingstudy,2020.2.10,Win32,60,,,,,B,,,,,,,,,,,,,,,2,1,0.8699,0,52,52,52,1,2,NEW,NEW,,,,,,,,
,,,,,,,,,,,,,,,,TestWords/RAY_PA_TI.wav,,60d7de8c5f5bcb8332d5e1a0,2021-07-14_02h22.39.076,Agingstudy,2020.2.10,Win32,60,,,,,B,,,,,,,,,,,,,,,1,1,0.2124,0,53,53,53,1,1,OLD,OLD,,,,,,,,
,,,,,,,,,,,,,,,,TestWords/VU_WAI_NA.wav,,60d7de8c5f5bcb8332d5e1a0,2021-07-14_02h22.39.076,Agingstudy,2020.2.10,Win32,60,,,,,B,,,,,,,,,,,,,,,1,0,0.3534,0,54,54,54,1,2,NEW,SIMILAR,,,,,,,,
,,,,,,,,,,,,,,,,TestWords/DAI_RU_CHI.wav,,60d7de8c5f5bcb8332d5e1a0,2021-07-14_02h22.39.076,Agingstudy,2020.2.10,Win32,60,,,,,B,,,,,,,,,,,,,,,1,1,0.3058,0,55,55,55,1,1,OLD,OLD,,,,,,,,
,,,,,,,,,,,,,,,,TestWords/GA_MU_ZI.wav,,60d7de8c5f5bcb8332d5e1a0,2021-07-14_02h22.39.076,Agingstudy,2020.2.10,Win32,60,,,,,B,,,,,,,,,,,,,,,1,1,0.2239,0,56,56,56,1,1,OLD,OLD,,,,,,,,
,,,,,,,,,,,,,,,,TestWords/KAI_LAY_TA.wav,,60d7de8c5f5bcb8332d5e1a0,2021-07-14_02h22.39.076,Agingstudy,2020.2.10,Win32,60,,,,,B,,,,,,,,,,,,,,,1,1,0.4339,0,57,57,57,1,1,OLD,OLD,,,,,,,,
,,,,,,,,,,,,,,,,TestWords/NU_CHAY_SO.wav,,60d7de8c5f5bcb8332d5e1a0,2021-07-14_02h22.39.076,Agingstudy,2020.2.10,Win32,60,,,,,B,,,,,,,,,,,,,,,2,1,0.7273,0,58,58,58,1,2,NEW,NEW,,,,,,,,
,,,,,,,,,,,,,,,,TestWords/KO_SU_FAI.wav,,60d7de8c5f5bcb8332d5e1a0,2021-07-14_02h22.39.076,Agingstudy,2020.2.10,Win32,60,,,,,B,,,,,,,,,,,,,,,1,1,0.3355,0,59,59,59,1,1,OLD,OLD,,,,,,,,
,,,,,,,,,,,,,,,,TestWords/RAY_PA_TI.wav,,60d7de8c5f5bcb8332d5e1a0,2021-07-14_02h22.39.076,Agingstudy,2020.2.10,Win32,60,,,,,B,,,,,,,,,,,,,,,1,1,0.0592,0,60,60,60,1,1,OLD,OLD,,,,,,,,
,,,,,,,,,,,,,,,,TestWords/BA_KAY_LI.wav,,60d7de8c5f5bcb8332d5e1a0,2021-07-14_02h22.39.076,Agingstudy,2020.2.10,Win32,60,,,,,B,,,,,,,,,,,,,,,2,1,1.0344,0,61,61,61,1,2,NEW,NEW,,,,,,,,
,,,,,,,,,,,,,,,,TestWords/KAI_LAY_TA.wav,,60d7de8c5f5bcb8332d5e1a0,2021-07-14_02h22.39.076,Agingstudy,2020.2.10,Win32,60,,,,,B,,,,,,,,,,,,,,,2,0,3.0704,0,62,62,62,1,1,OLD,OLD,,,,,,,,
,,,,,,,,,,,,,,,,TestWords/NA_VU_WAI.wav,,60d7de8c5f5bcb8332d5e1a0,2021-07-14_02h22.39.076,Agingstudy,2020.2.10,Win32,60,,,,,B,,,,,,,,,,,,,,,2,1,0.6921,0,63,63,63,1,2,NEW,SIMILAR,,,,,,,,
,,,,,,,,,,,,,,,,TestWords/GA_MU_ZI.wav,,60d7de8c5f5bcb8332d5e1a0,2021-07-14_02h22.39.076,Agingstudy,2020.2.10,Win32,60,,,,,B,,,,,,,,,,,,,,,1,1,0.1782,0,64,64,64,1,1,OLD,OLD,,,,,,,,
,,,,,,,,,,,,,,,,TestWords/KO_SU_FAI.wav,,60d7de8c5f5bcb8332d5e1a0,2021-07-14_02h22.39.076,Agingstudy,2020.2.10,Win32,60,,,,,B,,,,,,,,,,,,,,,1,1,0.3737,0,65,65,65,1,1,OLD,OLD,,,,,,,,
,,,,,,,,,,,,,,,,TestWords/DAI_RU_CHI.wav,,60d7de8c5f5bcb8332d5e1a0,2021-07-14_02h22.39.076,Agingstudy,2020.2.10,Win32,60,,,,,B,,,,,,,,,,,,,,,1,1,0.2245,0,66,66,66,1,1,OLD,OLD,,,,,,,,
,,,,,,,,,,,,,,,,TestWords/GU_CHAI_PI.wav,,60d7de8c5f5bcb8332d5e1a0,2021-07-14_02h22.39.076,Agingstudy,2020.2.10,Win32,60,,,,,B,,,,,,,,,,,,,,,2,1,0.2757,0,67,67,67,1,2,NEW,NEW,,,,,,,,
,,,,,,,,,,,,,,,,TestWords/RAY_PA_TI.wav,,60d7de8c5f5bcb8332d5e1a0,2021-07-14_02h22.39.076,Agingstudy,2020.2.10,Win32,60,,,,,B,,,,,,,,,,,,,,,1,1,0.0754,0,68,68,68,1,1,OLD,OLD,,,,,,,,
,,,,,,,,,,,,,,,,TestWords/KAY_LI_BA.wav,,60d7de8c5f5bcb8332d5e1a0,2021-07-14_02h22.39.076,Agingstudy,2020.2.10,Win32,60,,,,,B,,,,,,,,,,,,,,,2,1,0.9015,0,69,69,69,1,2,NEW,SIMILAR,,,,,,,,
,,,,,,,,,,,,,,,,TestWords/KAI_LAY_TA.wav,,60d7de8c5f5bcb8332d5e1a0,2021-07-14_02h22.39.076,Agingstudy,2020.2.10,Win32,60,,,,,B,,,,,,,,,,,,,,,1,1,0.3341,0,70,70,70,1,1,OLD,OLD,,,,,,,,
,,,,,,,,,,,,,,,,TestWords/KO_SU_FAI.wav,,60d7de8c5f5bcb8332d5e1a0,2021-07-14_02h22.39.076,Agingstudy,2020.2.10,Win32,60,,,,,B,,,,,,,,,,,,,,,1,1,0.4242,0,71,71,71,1,1,OLD,OLD,,,,,,,,
,,,,,,,,,,,,,,,,TestWords/DAI_RU_CHI.wav,,60d7de8c5f5bcb8332d5e1a0,2021-07-14_02h22.39.076,Agingstudy,2020.2.10,Win32,60,,,,,B,,,,,,,,,,,,,,,1,1,0.2361,0,72,72,72,1,1,OLD,OLD,,,,,,,,
,,,,,,,,,,,,,,,,TestWords/NA_WAI_VU.wav,,60d7de8c5f5bcb8332d5e1a0,2021-07-14_02h22.39.076,Agingstudy,2020.2.10,Win32,60,,,,,B,,,,,,,,,,,,,,,1,0,0.2102,0,73,73,73,1,2,NEW,SIMILAR,,,,,,,,
,,,,,,,,,,,,,,,,TestWords/GA_MU_ZI.wav,,60d7de8c5f5bcb8332d5e1a0,2021-07-14_02h22.39.076,Agingstudy,2020.2.10,Win32,60,,,,,B,,,,,,,,,,,,,,,1,1,0.3226,0,74,74,74,1,1,OLD,OLD,,,,,,,,
,,,,,,,,,,,,,,,,TestWords/KAY_BA_LI.wav,,60d7de8c5f5bcb8332d5e1a0,2021-07-14_02h22.39.076,Agingstudy,2020.2.10,Win32,60,,,,,B,,,,,,,,,,,,,,,1,0,1.1546,0,75,75,75,1,2,NEW,SIMILAR,,,,,,,,
,,,,,,,,,,,,,,,,TestWords/WAI_RO_JU.wav,,60d7de8c5f5bcb8332d5e1a0,2021-07-14_02h22.39.076,Agingstudy,2020.2.10,Win32,60,,,,,B,,,,,,,,,,,,,,,2,1,0.7014,0,76,76,76,1,2,NEW,NEW,,,,,,,,
,,,,,,,,,,,,,,,,TestWords/RAY_PA_TI.wav,,60d7de8c5f5bcb8332d5e1a0,2021-07-14_02h22.39.076,Agingstudy,2020.2.10,Win32,60,,,,,B,,,,,,,,,,,,,,,1,1,0.1368,0,77,77,77,1,1,OLD,OLD,,,,,,,,
,,,,,,,,,,,,,,,,TestWords/KAI_LAY_TA.wav,,60d7de8c5f5bcb8332d5e1a0,2021-07-14_02h22.39.076,Agingstudy,2020.2.10,Win32,60,,,,,B,,,,,,,,,,,,,,,1,1,0.2555,0,78,78,78,1,1,OLD,OLD,,,,,,,,
,,,,,,,,,,,,,,,,TestWords/HI_NAY_VA.wav,,60d7de8c5f5bcb8332d5e1a0,2021-07-14_02h22.39.076,Agingstudy,2020.2.10,Win32,60,,,,,B,,,,,,,,,,,,,,,2,1,0.3772,0,79,79,79,1,2,NEW,NEW,,,,,,,,
,,,,,,,,,,,,,,,,TestWords/KO_SU_FAI.wav,,60d7de8c5f5bcb8332d5e1a0,2021-07-14_02h22.39.076,Agingstudy,2020.2.10,Win32,60,,,,,B,,,,,,,,,,,,,,,1,1,1.2802,0,80,80,80,1,1,OLD,OLD,,,,,,,,
,,,,,,,,,,,,,,,,TestWords/GA_MU_ZI.wav,,60d7de8c5f5bcb8332d5e1a0,2021-07-14_02h22.39.076,Agingstudy,2020.2.10,Win32,60,,,,,B,,,,,,,,,,,,,,,1,1,0.1021,0,81,81,81,1,1,OLD,OLD,,,,,,,,
,,,,,,,,,,,,,,,,TestWords/KAI_LAY_TA.wav,,60d7de8c5f5bcb8332d5e1a0,2021-07-14_02h22.39.076,Agingstudy,2020.2.10,Win32,60,,,,,B,,,,,,,,,,,,,,,1,1,0.1991,0,82,82,82,1,1,OLD,OLD,,,,,,,,
,,,,,,,,,,,,,,,,TestWords/LI_BA_KAY.wav,,60d7de8c5f5bcb8332d5e1a0,2021-07-14_02h22.39.076,Agingstudy,2020.2.10,Win32,60,,,,,B,,,,,,,,,,,,,,,1,0,0.2368,0,83,83,83,1,2,NEW,SIMILAR,,,,,,,,
,,,,,,,,,,,,,,,,TestWords/DAI_RU_CHI.wav,,60d7de8c5f5bcb8332d5e1a0,2021-07-14_02h22.39.076,Agingstudy,2020.2.10,Win32,60,,,,,B,,,,,,,,,,,,,,,1,1,0.1553,0,84,84,84,1,1,OLD,OLD,,,,,,,,
,,,,,,,,,,,,,,,,TestWords/KO_SU_FAI.wav,,60d7de8c5f5bcb8332d5e1a0,2021-07-14_02h22.39.076,Agingstudy,2020.2.10,Win32,60,,,,,B,,,,,,,,,,,,,,,1,1,0.1999,0,85,85,85,1,1,OLD,OLD,,,,,,,,
,,,,,,,,,,,,,,,,TestWords/NO_WA_BAY.wav,,60d7de8c5f5bcb8332d5e1a0,2021-07-14_02h22.39.076,Agingstudy,2020.2.10,Win32,60,,,,,B,,,,,,,,,,,,,,,2,1,1.3663,0,86,86,86,1,2,NEW,NEW,,,,,,,,
,,,,,,,,,,,,,,,,TestWords/KAI_LAY_TA.wav,,60d7de8c5f5bcb8332d5e1a0,2021-07-14_02h22.39.076,Agingstudy,2020.2.10,Win32,60,,,,,B,,,,,,,,,,,,,,,1,1,0.1359,0,87,87,87,1,1,OLD,OLD,,,,,,,,
,,,,,,,,,,,,,,,,TestWords/GA_MU_ZI.wav,,60d7de8c5f5bcb8332d5e1a0,2021-07-14_02h22.39.076,Agingstudy,2020.2.10,Win32,60,,,,,B,,,,,,,,,,,,,,,1,1,0.0506,0,88,88,88,1,1,OLD,OLD,,,,,,,,
,,,,,,,,,,,,,,,,TestWords/DAI_RU_CHI.wav,,60d7de8c5f5bcb8332d5e1a0,2021-07-14_02h22.39.076,Agingstudy,2020.2.10,Win32,60,,,,,B,,,,,,,,,,,,,,,1,1,0.1549,0,89,89,89,1,1,OLD,OLD,,,,,,,,
,,,,,,,,,,,,,,,,TestWords/LA_ZAY_CHAI.wav,,60d7de8c5f5bcb8332d5e1a0,2021-07-14_02h22.39.076,Agingstudy,2020.2.10,Win32,60,,,,,B,,,,,,,,,,,,,,,1,0,0.3249,0,90,90,90,1,2,NEW,NEW,,,,,,,,
,,,,,,,,,,,,,,,,TestWords/BA_LI_KAY.wav,,60d7de8c5f5bcb8332d5e1a0,2021-07-14_02h22.39.076,Agingstudy,2020.2.10,Win32,60,,,,,B,,,,,,,,,,,,,,,1,0,0.0335,0,91,91,91,1,2,NEW,SIMILAR,,,,,,,,
,,,,,,,,,,,,,,,,TestWords/PAI_LU_WA.wav,,60d7de8c5f5bcb8332d5e1a0,2021-07-14_02h22.39.076,Agingstudy,2020.2.10,Win32,60,,,,,B,,,,,,,,,,,,,,,1,0,0.1008,0,92,92,92,1,2,NEW,NEW,,,,,,,,
,,,,,,,,,,,,,,,,TestWords/KO_SU_FAI.wav,,60d7de8c5f5bcb8332d5e1a0,2021-07-14_02h22.39.076,Agingstudy,2020.2.10,Win32,60,,,,,B,,,,,,,,,,,,,,,1,1,0.2341,0,93,93,93,1,1,OLD,OLD,,,,,,,,
,,,,,,,,,,,,,,,,TestWords/KAI_LAY_TA.wav,,60d7de8c5f5bcb8332d5e1a0,2021-07-14_02h22.39.076,Agingstudy,2020.2.10,Win32,60,,,,,B,,,,,,,,,,,,,,,1,1,0.5784,0,94,94,94,1,1,OLD,OLD,,,,,,,,
,,,,,,,,,,,,,,,,TestWords/VAI_HO_LA.wav,,60d7de8c5f5bcb8332d5e1a0,2021-07-14_02h22.39.076,Agingstudy,2020.2.10,Win32,60,,,,,B,,,,,,,,,,,,,,,2,1,0.2924,0,95,95,95,1,2,NEW,NEW,,,,,,,,
,,,,,,,,,,,,,,,,TestWords/GA_MU_ZI.wav,,60d7de8c5f5bcb8332d5e1a0,2021-07-14_02h22.39.076,Agingstudy,2020.2.10,Win32,60,,,,,B,,,,,,,,,,,,,,,1,1,0.1188,0,96,96,96,1,1,OLD,OLD,,,,,,,,
,,,,,,,,,,,,,,,,TestWords/LI_KAY_BA.wav,,60d7de8c5f5bcb8332d5e1a0,2021-07-14_02h22.39.076,Agingstudy,2020.2.10,Win32,60,,,,,B,,,,,,,,,,,,,,,1,0,0.2007,0,97,97,97,1,2,NEW,SIMILAR,,,,,,,,
,,,,,,,,,,,,,,,,TestWords/KAI_LAY_TA.wav,,60d7de8c5f5bcb8332d5e1a0,2021-07-14_02h22.39.076,Agingstudy,2020.2.10,Win32,60,,,,,B,,,,,,,,,,,,,,,1,1,0.1487,0,98,98,98,1,1,OLD,OLD,,,,,,,,
,,,,,,,,,,,,,,,,TestWords/SI_VAI_CHU.wav,,60d7de8c5f5bcb8332d5e1a0,2021-07-14_02h22.39.076,Agingstudy,2020.2.10,Win32,60,,,,,B,,,,,,,,,,,,,,,1,0,0.4336,0,99,99,99,1,2,NEW,NEW,,,,,,,,
,,,,,,,,,,,,,,,,,,60d7de8c5f5bcb8332d5e1a0,2021-07-14_02h22.39.076,Agingstudy,2020.2.10,Win32,60,,,,,,,,,,,,,,,,,,,,,,,,,,,,,,,0,0,0,0,1,,,
,,,,,,,,,,,,,,,,,,60d7de8c5f5bcb8332d5e1a0,2021-07-14_02h22.39.076,Agingstudy,2020.2.10,Win32,60,,,,,,,,,,,,,,,,,,,,,,,,,,,,,,,,,,,,return,16.2458,
