Welcome0Continue.keys,Welcome0Continue.rt,SoundCheckBegin.keys,SoundCheckBegin.rt,SoundCheckEndKey.keys,SoundCheckEndKey.rt,HeadphoneContinueKey.keys,HeadphoneContinueKey.rt,CheckResp.keys,CheckResp.corr,CheckResp.rt,HeadphoneLoop.thisRepN,HeadphoneLoop.thisTrialN,HeadphoneLoop.thisN,HeadphoneLoop.thisIndex,HeadphoneLoop.ran,File,Correct,participant,date,expName,psychopyVersion,OS,frameRate,STUDY_ID,SESSION_ID,ContinueKey8.keys,ContinueKey8.rt,MSTWelcomeContKey.keys,MSTWelcomeContKey.rt,Condition,MSTTrainIntroKey.keys,MSTTrainIntroKey.rt,MSTTrainKeys.keys,MSTTrainKeys.corr,MSTTrainKeys.rt,MSTTrainLoop.thisRepN,MSTTrainLoop.thisTrialN,MSTTrainLoop.thisN,MSTTrainLoop.thisIndex,MSTTrainLoop.ran,SoundFile,Type,MSTTestBeginKey.keys,MSTTestBeginKey.rt,MST_resp.keys,MST_resp.corr,MST_resp.rt,MSTPlayLoop.thisRepN,MSTPlayLoop.thisTrialN,MSTPlayLoop.thisN,MSTPlayLoop.thisIndex,MSTPlayLoop.ran,WordCorrect,Correct_type,WordType,MSTLoop.thisRepN,MSTLoop.thisTrialN,MSTLoop.thisN,MSTLoop.thisIndex,MSTLoop.ran,EndAllKey.keys,EndAllKey.rt,FeedbackResp.text
space,16.7528,space,13.2813,space,62.0482,space,16.8392,2,1,1.9823,0,0,0,3,1,Headphone/t2_2.wav,2,5fbc0e54b3efb70778c86227,2021-07-09_19h05.53.304,Agingstudy_mst,2020.2.10,Win32,60,60e8550594adb1982c6cb1b5,60e8813cec66564ae0f67191,,,,,,,,,,,,,,,,,,,,,,,,,,,,,,,,,,,,,,
,,,,,,,,1,1,1.8585,0,1,1,1,1,Headphone/t1_2.wav,1,5fbc0e54b3efb70778c86227,2021-07-09_19h05.53.304,Agingstudy_mst,2020.2.10,Win32,60,60e8550594adb1982c6cb1b5,60e8813cec66564ae0f67191,,,,,,,,,,,,,,,,,,,,,,,,,,,,,,,,,,,,,,
,,,,,,,,3,1,0.8858,0,2,2,4,1,Headphone/t3_1.wav,3,5fbc0e54b3efb70778c86227,2021-07-09_19h05.53.304,Agingstudy_mst,2020.2.10,Win32,60,60e8550594adb1982c6cb1b5,60e8813cec66564ae0f67191,,,,,,,,,,,,,,,,,,,,,,,,,,,,,,,,,,,,,,
,,,,,,,,2,1,2.8032,0,3,3,2,1,Headphone/t2_1.wav,2,5fbc0e54b3efb70778c86227,2021-07-09_19h05.53.304,Agingstudy_mst,2020.2.10,Win32,60,60e8550594adb1982c6cb1b5,60e8813cec66564ae0f67191,,,,,,,,,,,,,,,,,,,,,,,,,,,,,,,,,,,,,,
,,,,,,,,1,1,2.5022,0,4,4,0,1,Headphone/t1_1.wav,1,5fbc0e54b3efb70778c86227,2021-07-09_19h05.53.304,Agingstudy_mst,2020.2.10,Win32,60,60e8550594adb1982c6cb1b5,60e8813cec66564ae0f67191,,,,,,,,,,,,,,,,,,,,,,,,,,,,,,,,,,,,,,
,,,,,,,,3,1,2.2876,0,5,5,5,1,Headphone/t3_2.wav,3,5fbc0e54b3efb70778c86227,2021-07-09_19h05.53.304,Agingstudy_mst,2020.2.10,Win32,60,60e8550594adb1982c6cb1b5,60e8813cec66564ae0f67191,,,,,,,,,,,,,,,,,,,,,,,,,,,,,,,,,,,,,,
,,,,,,,,,,,,,,,,,2,5fbc0e54b3efb70778c86227,2021-07-09_19h05.53.304,Agingstudy_mst,2020.2.10,Win32,60,60e8550594adb1982c6cb1b5,60e8813cec66564ae0f67191,space,46.1882,space,17.931,1,space,10.6828,2,1,9.9998,0,0,0,0,1,Training/FO_YI_LAY.wav,NEW,,,,,,,,,,,,,,,,,,,,,
,,,,,,,,,,,,,,,,,1,5fbc0e54b3efb70778c86227,2021-07-09_19h05.53.304,Agingstudy_mst,2020.2.10,Win32,60,60e8550594adb1982c6cb1b5,60e8813cec66564ae0f67191,,,,,,,,1,1,8.8897,0,1,1,1,1,Training/FO_YI_LAY.wav,OLD,,,,,,,,,,,,,,,,,,,,,
,,,,,,,,,,,,,,,,,2,5fbc0e54b3efb70778c86227,2021-07-09_19h05.53.304,Agingstudy_mst,2020.2.10,Win32,60,60e8550594adb1982c6cb1b5,60e8813cec66564ae0f67191,,,,,,,,2,1,3.2385,0,2,2,2,1,Training/YO_BU_JAY.wav,NEW,,,,,,,,,,,,,,,,,,,,,
,,,,,,,,,,,,,,,,,2,5fbc0e54b3efb70778c86227,2021-07-09_19h05.53.304,Agingstudy_mst,2020.2.10,Win32,60,60e8550594adb1982c6cb1b5,60e8813cec66564ae0f67191,,,,,,,,2,1,2.7308,0,3,3,3,1,Training/JAY_YO_BU.wav,SIMILAR,,,,,,,,,,,,,,,,,,,,,
,,,,,,,,,,,,,,,,,1,5fbc0e54b3efb70778c86227,2021-07-09_19h05.53.304,Agingstudy_mst,2020.2.10,Win32,60,60e8550594adb1982c6cb1b5,60e8813cec66564ae0f67191,,,,,,,,1,1,7.2332,0,4,4,4,1,Training/FO_YI_LAY.wav,OLD,,,,,,,,,,,,,,,,,,,,,
,,,,,,,,,,,,,,,,TestWords/SI_VAI_CHU.wav,,5fbc0e54b3efb70778c86227,2021-07-09_19h05.53.304,Agingstudy_mst,2020.2.10,Win32,60,60e8550594adb1982c6cb1b5,60e8813cec66564ae0f67191,,,,,F,,,,,,,,,,,,,space,22.6385,2,1,7.5532,0,0,0,0,1,2,NEW,NEW,,,,,,,,
,,,,,,,,,,,,,,,,TestWords/HO_NAY_VA.wav,,5fbc0e54b3efb70778c86227,2021-07-09_19h05.53.304,Agingstudy_mst,2020.2.10,Win32,60,60e8550594adb1982c6cb1b5,60e8813cec66564ae0f67191,,,,,F,,,,,,,,,,,,,,,2,1,3.417,0,1,1,1,1,2,NEW,NEW,,,,,,,,
,,,,,,,,,,,,,,,,TestWords/KAI_LAY_TA.wav,,5fbc0e54b3efb70778c86227,2021-07-09_19h05.53.304,Agingstudy_mst,2020.2.10,Win32,60,60e8550594adb1982c6cb1b5,60e8813cec66564ae0f67191,,,,,F,,,,,,,,,,,,,,,2,1,2.2379,0,2,2,2,1,2,NEW,NEW,,,,,,,,
,,,,,,,,,,,,,,,,TestWords/PAI_LU_WA.wav,,5fbc0e54b3efb70778c86227,2021-07-09_19h05.53.304,Agingstudy_mst,2020.2.10,Win32,60,60e8550594adb1982c6cb1b5,60e8813cec66564ae0f67191,,,,,F,,,,,,,,,,,,,,,2,1,2.5211,0,3,3,3,1,2,NEW,NEW,,,,,,,,
,,,,,,,,,,,,,,,,TestWords/WAI_VU_NA.wav,,5fbc0e54b3efb70778c86227,2021-07-09_19h05.53.304,Agingstudy_mst,2020.2.10,Win32,60,60e8550594adb1982c6cb1b5,60e8813cec66564ae0f67191,,,,,F,,,,,,,,,,,,,,,2,1,3.4195,0,4,4,4,1,2,NEW,NEW,,,,,,,,
,,,,,,,,,,,,,,,,TestWords/VAI_HO_LA.wav,,5fbc0e54b3efb70778c86227,2021-07-09_19h05.53.304,Agingstudy_mst,2020.2.10,Win32,60,60e8550594adb1982c6cb1b5,60e8813cec66564ae0f67191,,,,,F,,,,,,,,,,,,,,,2,1,3.1226,0,5,5,5,1,2,NEW,NEW,,,,,,,,
,,,,,,,,,,,,,,,,TestWords/GU_CHAI_PI.wav,,5fbc0e54b3efb70778c86227,2021-07-09_19h05.53.304,Agingstudy_mst,2020.2.10,Win32,60,60e8550594adb1982c6cb1b5,60e8813cec66564ae0f67191,,,,,F,,,,,,,,,,,,,,,2,1,1.7858,0,6,6,6,1,2,NEW,NEW,,,,,,,,
,,,,,,,,,,,,,,,,TestWords/KO_SU_FAI.wav,,5fbc0e54b3efb70778c86227,2021-07-09_19h05.53.304,Agingstudy_mst,2020.2.10,Win32,60,60e8550594adb1982c6cb1b5,60e8813cec66564ae0f67191,,,,,F,,,,,,,,,,,,,,,2,1,1.4189,0,7,7,7,1,2,NEW,NEW,,,,,,,,
,,,,,,,,,,,,,,,,TestWords/KAI_LAY_TA.wav,,5fbc0e54b3efb70778c86227,2021-07-09_19h05.53.304,Agingstudy_mst,2020.2.10,Win32,60,60e8550594adb1982c6cb1b5,60e8813cec66564ae0f67191,,,,,F,,,,,,,,,,,,,,,2,0,1.5373,0,8,8,8,1,1,OLD,OLD,,,,,,,,
,,,,,,,,,,,,,,,,TestWords/BA_KAY_LI.wav,,5fbc0e54b3efb70778c86227,2021-07-09_19h05.53.304,Agingstudy_mst,2020.2.10,Win32,60,60e8550594adb1982c6cb1b5,60e8813cec66564ae0f67191,,,,,F,,,,,,,,,,,,,,,2,1,0.8235,0,9,9,9,1,2,NEW,NEW,,,,,,,,
,,,,,,,,,,,,,,,,TestWords/DAI_RU_CHI.wav,,5fbc0e54b3efb70778c86227,2021-07-09_19h05.53.304,Agingstudy_mst,2020.2.10,Win32,60,60e8550594adb1982c6cb1b5,60e8813cec66564ae0f67191,,,,,F,,,,,,,,,,,,,,,2,1,1.2705,0,10,10,10,1,2,NEW,NEW,,,,,,,,
,,,,,,,,,,,,,,,,TestWords/WAI_NA_VU.wav,,5fbc0e54b3efb70778c86227,2021-07-09_19h05.53.304,Agingstudy_mst,2020.2.10,Win32,60,60e8550594adb1982c6cb1b5,60e8813cec66564ae0f67191,,,,,F,,,,,,,,,,,,,,,2,1,2.3877,0,11,11,11,1,2,NEW,SIMILAR,,,,,,,,
,,,,,,,,,,,,,,,,TestWords/DA_CHU_VAI.wav,,5fbc0e54b3efb70778c86227,2021-07-09_19h05.53.304,Agingstudy_mst,2020.2.10,Win32,60,60e8550594adb1982c6cb1b5,60e8813cec66564ae0f67191,,,,,F,,,,,,,,,,,,,,,2,1,4.8251,0,12,12,12,1,2,NEW,NEW,,,,,,,,
,,,,,,,,,,,,,,,,TestWords/KAI_LAY_TA.wav,,5fbc0e54b3efb70778c86227,2021-07-09_19h05.53.304,Agingstudy_mst,2020.2.10,Win32,60,60e8550594adb1982c6cb1b5,60e8813cec66564ae0f67191,,,,,F,,,,,,,,,,,,,,,1,1,2.0699,0,13,13,13,1,1,OLD,OLD,,,,,,,,
,,,,,,,,,,,,,,,,TestWords/KO_SU_FAI.wav,,5fbc0e54b3efb70778c86227,2021-07-09_19h05.53.304,Agingstudy_mst,2020.2.10,Win32,60,60e8550594adb1982c6cb1b5,60e8813cec66564ae0f67191,,,,,F,,,,,,,,,,,,,,,1,1,1.1545,0,14,14,14,1,1,OLD,OLD,,,,,,,,
,,,,,,,,,,,,,,,,TestWords/VU_NA_WAI.wav,,5fbc0e54b3efb70778c86227,2021-07-09_19h05.53.304,Agingstudy_mst,2020.2.10,Win32,60,60e8550594adb1982c6cb1b5,60e8813cec66564ae0f67191,,,,,F,,,,,,,,,,,,,,,2,1,1.0046,0,15,15,15,1,2,NEW,SIMILAR,,,,,,,,
,,,,,,,,,,,,,,,,TestWords/DAI_RU_CHI.wav,,5fbc0e54b3efb70778c86227,2021-07-09_19h05.53.304,Agingstudy_mst,2020.2.10,Win32,60,60e8550594adb1982c6cb1b5,60e8813cec66564ae0f67191,,,,,F,,,,,,,,,,,,,,,1,1,1.1068,0,16,16,16,1,1,OLD,OLD,,,,,,,,
,,,,,,,,,,,,,,,,TestWords/KAY_LI_BA.wav,,5fbc0e54b3efb70778c86227,2021-07-09_19h05.53.304,Agingstudy_mst,2020.2.10,Win32,60,60e8550594adb1982c6cb1b5,60e8813cec66564ae0f67191,,,,,F,,,,,,,,,,,,,,,2,1,1.2685,0,17,17,17,1,2,NEW,SIMILAR,,,,,,,,
,,,,,,,,,,,,,,,,TestWords/RAY_PA_TI.wav,,5fbc0e54b3efb70778c86227,2021-07-09_19h05.53.304,Agingstudy_mst,2020.2.10,Win32,60,60e8550594adb1982c6cb1b5,60e8813cec66564ae0f67191,,,,,F,,,,,,,,,,,,,,,2,1,0.5874,0,18,18,18,1,2,NEW,NEW,,,,,,,,
,,,,,,,,,,,,,,,,TestWords/KAI_LAY_TA.wav,,5fbc0e54b3efb70778c86227,2021-07-09_19h05.53.304,Agingstudy_mst,2020.2.10,Win32,60,60e8550594adb1982c6cb1b5,60e8813cec66564ae0f67191,,,,,F,,,,,,,,,,,,,,,1,1,0.9865,0,19,19,19,1,1,OLD,OLD,,,,,,,,
,,,,,,,,,,,,,,,,TestWords/VU_WAI_NA.wav,,5fbc0e54b3efb70778c86227,2021-07-09_19h05.53.304,Agingstudy_mst,2020.2.10,Win32,60,60e8550594adb1982c6cb1b5,60e8813cec66564ae0f67191,,,,,F,,,,,,,,,,,,,,,1,0,0.9386,0,20,20,20,1,2,NEW,SIMILAR,,,,,,,,
,,,,,,,,,,,,,,,,TestWords/KO_SU_FAI.wav,,5fbc0e54b3efb70778c86227,2021-07-09_19h05.53.304,Agingstudy_mst,2020.2.10,Win32,60,60e8550594adb1982c6cb1b5,60e8813cec66564ae0f67191,,,,,F,,,,,,,,,,,,,,,1,1,1.389,0,21,21,21,1,1,OLD,OLD,,,,,,,,
,,,,,,,,,,,,,,,,TestWords/HI_NAY_VA.wav,,5fbc0e54b3efb70778c86227,2021-07-09_19h05.53.304,Agingstudy_mst,2020.2.10,Win32,60,60e8550594adb1982c6cb1b5,60e8813cec66564ae0f67191,,,,,F,,,,,,,,,,,,,,,2,1,0.4035,0,22,22,22,1,2,NEW,NEW,,,,,,,,
,,,,,,,,,,,,,,,,TestWords/KAI_LAY_TA.wav,,5fbc0e54b3efb70778c86227,2021-07-09_19h05.53.304,Agingstudy_mst,2020.2.10,Win32,60,60e8550594adb1982c6cb1b5,60e8813cec66564ae0f67191,,,,,F,,,,,,,,,,,,,,,1,1,0.725,0,23,23,23,1,1,OLD,OLD,,,,,,,,
,,,,,,,,,,,,,,,,TestWords/RAY_PA_TI.wav,,5fbc0e54b3efb70778c86227,2021-07-09_19h05.53.304,Agingstudy_mst,2020.2.10,Win32,60,60e8550594adb1982c6cb1b5,60e8813cec66564ae0f67191,,,,,F,,,,,,,,,,,,,,,2,0,0.8378,0,24,24,24,1,1,OLD,OLD,,,,,,,,
,,,,,,,,,,,,,,,,TestWords/DAI_RU_CHI.wav,,5fbc0e54b3efb70778c86227,2021-07-09_19h05.53.304,Agingstudy_mst,2020.2.10,Win32,60,60e8550594adb1982c6cb1b5,60e8813cec66564ae0f67191,,,,,F,,,,,,,,,,,,,,,1,1,1.1021,0,25,25,25,1,1,OLD,OLD,,,,,,,,
,,,,,,,,,,,,,,,,TestWords/NA_VU_WAI.wav,,5fbc0e54b3efb70778c86227,2021-07-09_19h05.53.304,Agingstudy_mst,2020.2.10,Win32,60,60e8550594adb1982c6cb1b5,60e8813cec66564ae0f67191,,,,,F,,,,,,,,,,,,,,,1,0,0.9709,0,26,26,26,1,2,NEW,SIMILAR,,,,,,,,
,,,,,,,,,,,,,,,,TestWords/KAY_BA_LI.wav,,5fbc0e54b3efb70778c86227,2021-07-09_19h05.53.304,Agingstudy_mst,2020.2.10,Win32,60,60e8550594adb1982c6cb1b5,60e8813cec66564ae0f67191,,,,,F,,,,,,,,,,,,,,,2,1,1.521,0,27,27,27,1,2,NEW,SIMILAR,,,,,,,,
,,,,,,,,,,,,,,,,TestWords/KO_SU_FAI.wav,,5fbc0e54b3efb70778c86227,2021-07-09_19h05.53.304,Agingstudy_mst,2020.2.10,Win32,60,60e8550594adb1982c6cb1b5,60e8813cec66564ae0f67191,,,,,F,,,,,,,,,,,,,,,1,1,1.9869,0,28,28,28,1,1,OLD,OLD,,,,,,,,
,,,,,,,,,,,,,,,,TestWords/KAI_LAY_TA.wav,,5fbc0e54b3efb70778c86227,2021-07-09_19h05.53.304,Agingstudy_mst,2020.2.10,Win32,60,60e8550594adb1982c6cb1b5,60e8813cec66564ae0f67191,,,,,F,,,,,,,,,,,,,,,1,1,2.4527,0,29,29,29,1,1,OLD,OLD,,,,,,,,
,,,,,,,,,,,,,,,,TestWords/RAY_PA_TI.wav,,5fbc0e54b3efb70778c86227,2021-07-09_19h05.53.304,Agingstudy_mst,2020.2.10,Win32,60,60e8550594adb1982c6cb1b5,60e8813cec66564ae0f67191,,,,,F,,,,,,,,,,,,,,,2,0,2.2583,0,30,30,30,1,1,OLD,OLD,,,,,,,,
,,,,,,,,,,,,,,,,TestWords/NU_CHAY_SO.wav,,5fbc0e54b3efb70778c86227,2021-07-09_19h05.53.304,Agingstudy_mst,2020.2.10,Win32,60,60e8550594adb1982c6cb1b5,60e8813cec66564ae0f67191,,,,,F,,,,,,,,,,,,,,,2,1,1.0315,0,31,31,31,1,2,NEW,NEW,,,,,,,,
,,,,,,,,,,,,,,,,TestWords/DAI_RU_CHI.wav,,5fbc0e54b3efb70778c86227,2021-07-09_19h05.53.304,Agingstudy_mst,2020.2.10,Win32,60,60e8550594adb1982c6cb1b5,60e8813cec66564ae0f67191,,,,,F,,,,,,,,,,,,,,,1,1,0.9371,0,32,32,32,1,1,OLD,OLD,,,,,,,,
,,,,,,,,,,,,,,,,TestWords/NA_WAI_VU.wav,,5fbc0e54b3efb70778c86227,2021-07-09_19h05.53.304,Agingstudy_mst,2020.2.10,Win32,60,60e8550594adb1982c6cb1b5,60e8813cec66564ae0f67191,,,,,F,,,,,,,,,,,,,,,2,1,4.7847,0,33,33,33,1,2,NEW,SIMILAR,,,,,,,,
,,,,,,,,,,,,,,,,TestWords/GA_MU_ZI.wav,,5fbc0e54b3efb70778c86227,2021-07-09_19h05.53.304,Agingstudy_mst,2020.2.10,Win32,60,60e8550594adb1982c6cb1b5,60e8813cec66564ae0f67191,,,,,F,,,,,,,,,,,,,,,2,1,1.0041,0,34,34,34,1,2,NEW,NEW,,,,,,,,
,,,,,,,,,,,,,,,,TestWords/KAI_LAY_TA.wav,,5fbc0e54b3efb70778c86227,2021-07-09_19h05.53.304,Agingstudy_mst,2020.2.10,Win32,60,60e8550594adb1982c6cb1b5,60e8813cec66564ae0f67191,,,,,F,,,,,,,,,,,,,,,1,1,0.4697,0,35,35,35,1,1,OLD,OLD,,,,,,,,
,,,,,,,,,,,,,,,,TestWords/LI_BA_KAY.wav,,5fbc0e54b3efb70778c86227,2021-07-09_19h05.53.304,Agingstudy_mst,2020.2.10,Win32,60,60e8550594adb1982c6cb1b5,60e8813cec66564ae0f67191,,,,,F,,,,,,,,,,,,,,,2,1,0.5879,0,36,36,36,1,2,NEW,SIMILAR,,,,,,,,
,,,,,,,,,,,,,,,,TestWords/KO_SU_FAI.wav,,5fbc0e54b3efb70778c86227,2021-07-09_19h05.53.304,Agingstudy_mst,2020.2.10,Win32,60,60e8550594adb1982c6cb1b5,60e8813cec66564ae0f67191,,,,,F,,,,,,,,,,,,,,,2,0,2.7583,0,37,37,37,1,1,OLD,OLD,,,,,,,,
,,,,,,,,,,,,,,,,TestWords/RAY_PA_TI.wav,,5fbc0e54b3efb70778c86227,2021-07-09_19h05.53.304,Agingstudy_mst,2020.2.10,Win32,60,60e8550594adb1982c6cb1b5,60e8813cec66564ae0f67191,,,,,F,,,,,,,,,,,,,,,1,1,0.6037,0,38,38,38,1,1,OLD,OLD,,,,,,,,
,,,,,,,,,,,,,,,,TestWords/TAI_SA_GI.wav,,5fbc0e54b3efb70778c86227,2021-07-09_19h05.53.304,Agingstudy_mst,2020.2.10,Win32,60,60e8550594adb1982c6cb1b5,60e8813cec66564ae0f67191,,,,,F,,,,,,,,,,,,,,,2,1,0.4708,0,39,39,39,1,2,NEW,NEW,,,,,,,,
,,,,,,,,,,,,,,,,TestWords/DAI_RU_CHI.wav,,5fbc0e54b3efb70778c86227,2021-07-09_19h05.53.304,Agingstudy_mst,2020.2.10,Win32,60,60e8550594adb1982c6cb1b5,60e8813cec66564ae0f67191,,,,,F,,,,,,,,,,,,,,,1,1,0.4876,0,40,40,40,1,1,OLD,OLD,,,,,,,,
,,,,,,,,,,,,,,,,TestWords/GA_MU_ZI.wav,,5fbc0e54b3efb70778c86227,2021-07-09_19h05.53.304,Agingstudy_mst,2020.2.10,Win32,60,60e8550594adb1982c6cb1b5,60e8813cec66564ae0f67191,,,,,F,,,,,,,,,,,,,,,2,0,0.2373,0,41,41,41,1,1,OLD,OLD,,,,,,,,
,,,,,,,,,,,,,,,,TestWords/KAI_LAY_TA.wav,,5fbc0e54b3efb70778c86227,2021-07-09_19h05.53.304,Agingstudy_mst,2020.2.10,Win32,60,60e8550594adb1982c6cb1b5,60e8813cec66564ae0f67191,,,,,F,,,,,,,,,,,,,,,1,1,1.1042,0,42,42,42,1,1,OLD,OLD,,,,,,,,
,,,,,,,,,,,,,,,,TestWords/GI_SA_TAI.wav,,5fbc0e54b3efb70778c86227,2021-07-09_19h05.53.304,Agingstudy_mst,2020.2.10,Win32,60,60e8550594adb1982c6cb1b5,60e8813cec66564ae0f67191,,,,,F,,,,,,,,,,,,,,,2,1,0.4368,0,43,43,43,1,2,NEW,SIMILAR,,,,,,,,
,,,,,,,,,,,,,,,,TestWords/BA_LI_KAY.wav,,5fbc0e54b3efb70778c86227,2021-07-09_19h05.53.304,Agingstudy_mst,2020.2.10,Win32,60,60e8550594adb1982c6cb1b5,60e8813cec66564ae0f67191,,,,,F,,,,,,,,,,,,,,,2,1,0.4207,0,44,44,44,1,2,NEW,SIMILAR,,,,,,,,
,,,,,,,,,,,,,,,,TestWords/KO_SU_FAI.wav,,5fbc0e54b3efb70778c86227,2021-07-09_19h05.53.304,Agingstudy_mst,2020.2.10,Win32,60,60e8550594adb1982c6cb1b5,60e8813cec66564ae0f67191,,,,,F,,,,,,,,,,,,,,,1,1,0.4388,0,45,45,45,1,1,OLD,OLD,,,,,,,,
,,,,,,,,,,,,,,,,TestWords/RAY_PA_TI.wav,,5fbc0e54b3efb70778c86227,2021-07-09_19h05.53.304,Agingstudy_mst,2020.2.10,Win32,60,60e8550594adb1982c6cb1b5,60e8813cec66564ae0f67191,,,,,F,,,,,,,,,,,,,,,1,1,0.4709,0,46,46,46,1,1,OLD,OLD,,,,,,,,
,,,,,,,,,,,,,,,,TestWords/GA_MU_ZI.wav,,5fbc0e54b3efb70778c86227,2021-07-09_19h05.53.304,Agingstudy_mst,2020.2.10,Win32,60,60e8550594adb1982c6cb1b5,60e8813cec66564ae0f67191,,,,,F,,,,,,,,,,,,,,,1,1,1.1361,0,47,47,47,1,1,OLD,OLD,,,,,,,,
,,,,,,,,,,,,,,,,TestWords/LU_HAI_BO.wav,,5fbc0e54b3efb70778c86227,2021-07-09_19h05.53.304,Agingstudy_mst,2020.2.10,Win32,60,60e8550594adb1982c6cb1b5,60e8813cec66564ae0f67191,,,,,F,,,,,,,,,,,,,,,2,1,0.2695,0,48,48,48,1,2,NEW,NEW,,,,,,,,
,,,,,,,,,,,,,,,,TestWords/KAI_LAY_TA.wav,,5fbc0e54b3efb70778c86227,2021-07-09_19h05.53.304,Agingstudy_mst,2020.2.10,Win32,60,60e8550594adb1982c6cb1b5,60e8813cec66564ae0f67191,,,,,F,,,,,,,,,,,,,,,2,0,3.9556,0,49,49,49,1,1,OLD,OLD,,,,,,,,
,,,,,,,,,,,,,,,,TestWords/DAI_RU_CHI.wav,,5fbc0e54b3efb70778c86227,2021-07-09_19h05.53.304,Agingstudy_mst,2020.2.10,Win32,60,60e8550594adb1982c6cb1b5,60e8813cec66564ae0f67191,,,,,F,,,,,,,,,,,,,,,1,1,0.3545,0,50,50,50,1,1,OLD,OLD,,,,,,,,
,,,,,,,,,,,,,,,,TestWords/GI_TAI_SA.wav,,5fbc0e54b3efb70778c86227,2021-07-09_19h05.53.304,Agingstudy_mst,2020.2.10,Win32,60,60e8550594adb1982c6cb1b5,60e8813cec66564ae0f67191,,,,,F,,,,,,,,,,,,,,,2,1,0.6852,0,51,51,51,1,2,NEW,SIMILAR,,,,,,,,
,,,,,,,,,,,,,,,,TestWords/LI_KAY_BA.wav,,5fbc0e54b3efb70778c86227,2021-07-09_19h05.53.304,Agingstudy_mst,2020.2.10,Win32,60,60e8550594adb1982c6cb1b5,60e8813cec66564ae0f67191,,,,,F,,,,,,,,,,,,,,,1,0,1.1212,0,52,52,52,1,2,NEW,SIMILAR,,,,,,,,
,,,,,,,,,,,,,,,,TestWords/RAY_PA_TI.wav,,5fbc0e54b3efb70778c86227,2021-07-09_19h05.53.304,Agingstudy_mst,2020.2.10,Win32,60,60e8550594adb1982c6cb1b5,60e8813cec66564ae0f67191,,,,,F,,,,,,,,,,,,,,,1,1,0.335,0,53,53,53,1,1,OLD,OLD,,,,,,,,
,,,,,,,,,,,,,,,,TestWords/KO_SU_FAI.wav,,5fbc0e54b3efb70778c86227,2021-07-09_19h05.53.304,Agingstudy_mst,2020.2.10,Win32,60,60e8550594adb1982c6cb1b5,60e8813cec66564ae0f67191,,,,,F,,,,,,,,,,,,,,,1,1,0.6531,0,54,54,54,1,1,OLD,OLD,,,,,,,,
,,,,,,,,,,,,,,,,TestWords/DAY_PU_MO.wav,,5fbc0e54b3efb70778c86227,2021-07-09_19h05.53.304,Agingstudy_mst,2020.2.10,Win32,60,60e8550594adb1982c6cb1b5,60e8813cec66564ae0f67191,,,,,F,,,,,,,,,,,,,,,2,1,0.5045,0,55,55,55,1,2,NEW,NEW,,,,,,,,
,,,,,,,,,,,,,,,,TestWords/KAI_LAY_TA.wav,,5fbc0e54b3efb70778c86227,2021-07-09_19h05.53.304,Agingstudy_mst,2020.2.10,Win32,60,60e8550594adb1982c6cb1b5,60e8813cec66564ae0f67191,,,,,F,,,,,,,,,,,,,,,1,1,0.4698,0,56,56,56,1,1,OLD,OLD,,,,,,,,
,,,,,,,,,,,,,,,,TestWords/GA_MU_ZI.wav,,5fbc0e54b3efb70778c86227,2021-07-09_19h05.53.304,Agingstudy_mst,2020.2.10,Win32,60,60e8550594adb1982c6cb1b5,60e8813cec66564ae0f67191,,,,,F,,,,,,,,,,,,,,,1,1,0.504,0,57,57,57,1,1,OLD,OLD,,,,,,,,
,,,,,,,,,,,,,,,,TestWords/CHU_LA_PAY.wav,,5fbc0e54b3efb70778c86227,2021-07-09_19h05.53.304,Agingstudy_mst,2020.2.10,Win32,60,60e8550594adb1982c6cb1b5,60e8813cec66564ae0f67191,,,,,F,,,,,,,,,,,,,,,2,1,0.5362,0,58,58,58,1,2,NEW,NEW,,,,,,,,
,,,,,,,,,,,,,,,,TestWords/DAI_RU_CHI.wav,,5fbc0e54b3efb70778c86227,2021-07-09_19h05.53.304,Agingstudy_mst,2020.2.10,Win32,60,60e8550594adb1982c6cb1b5,60e8813cec66564ae0f67191,,,,,F,,,,,,,,,,,,,,,1,1,0.4877,0,59,59,59,1,1,OLD,OLD,,,,,,,,
,,,,,,,,,,,,,,,,TestWords/SA_TAI_GI.wav,,5fbc0e54b3efb70778c86227,2021-07-09_19h05.53.304,Agingstudy_mst,2020.2.10,Win32,60,60e8550594adb1982c6cb1b5,60e8813cec66564ae0f67191,,,,,F,,,,,,,,,,,,,,,2,1,0.1882,0,60,60,60,1,2,NEW,SIMILAR,,,,,,,,
,,,,,,,,,,,,,,,,TestWords/RAY_PA_TI.wav,,5fbc0e54b3efb70778c86227,2021-07-09_19h05.53.304,Agingstudy_mst,2020.2.10,Win32,60,60e8550594adb1982c6cb1b5,60e8813cec66564ae0f67191,,,,,F,,,,,,,,,,,,,,,1,1,0.6565,0,61,61,61,1,1,OLD,OLD,,,,,,,,
,,,,,,,,,,,,,,,,TestWords/KAI_LAY_TA.wav,,5fbc0e54b3efb70778c86227,2021-07-09_19h05.53.304,Agingstudy_mst,2020.2.10,Win32,60,60e8550594adb1982c6cb1b5,60e8813cec66564ae0f67191,,,,,F,,,,,,,,,,,,,,,1,1,0.8528,0,62,62,62,1,1,OLD,OLD,,,,,,,,
,,,,,,,,,,,,,,,,TestWords/FU_RAI_ZO.wav,,5fbc0e54b3efb70778c86227,2021-07-09_19h05.53.304,Agingstudy_mst,2020.2.10,Win32,60,60e8550594adb1982c6cb1b5,60e8813cec66564ae0f67191,,,,,F,,,,,,,,,,,,,,,2,1,0.4533,0,63,63,63,1,2,NEW,NEW,,,,,,,,
,,,,,,,,,,,,,,,,TestWords/KO_SU_FAI.wav,,5fbc0e54b3efb70778c86227,2021-07-09_19h05.53.304,Agingstudy_mst,2020.2.10,Win32,60,60e8550594adb1982c6cb1b5,60e8813cec66564ae0f67191,,,,,F,,,,,,,,,,,,,,,1,1,0.8541,0,64,64,64,1,1,OLD,OLD,,,,,,,,
,,,,,,,,,,,,,,,,TestWords/GA_MU_ZI.wav,,5fbc0e54b3efb70778c86227,2021-07-09_19h05.53.304,Agingstudy_mst,2020.2.10,Win32,60,60e8550594adb1982c6cb1b5,60e8813cec66564ae0f67191,,,,,F,,,,,,,,,,,,,,,1,1,0.3909,0,65,65,65,1,1,OLD,OLD,,,,,,,,
,,,,,,,,,,,,,,,,TestWords/DAY_MO_PU.wav,,5fbc0e54b3efb70778c86227,2021-07-09_19h05.53.304,Agingstudy_mst,2020.2.10,Win32,60,60e8550594adb1982c6cb1b5,60e8813cec66564ae0f67191,,,,,F,,,,,,,,,,,,,,,2,1,0.1034,0,66,66,66,1,2,NEW,SIMILAR,,,,,,,,
,,,,,,,,,,,,,,,,TestWords/DAI_RU_CHI.wav,,5fbc0e54b3efb70778c86227,2021-07-09_19h05.53.304,Agingstudy_mst,2020.2.10,Win32,60,60e8550594adb1982c6cb1b5,60e8813cec66564ae0f67191,,,,,F,,,,,,,,,,,,,,,1,1,0.4056,0,67,67,67,1,1,OLD,OLD,,,,,,,,
,,,,,,,,,,,,,,,,TestWords/FI_GU_CHA.wav,,5fbc0e54b3efb70778c86227,2021-07-09_19h05.53.304,Agingstudy_mst,2020.2.10,Win32,60,60e8550594adb1982c6cb1b5,60e8813cec66564ae0f67191,,,,,F,,,,,,,,,,,,,,,2,1,0.6044,0,68,68,68,1,2,NEW,NEW,,,,,,,,
,,,,,,,,,,,,,,,,TestWords/GA_MU_ZI.wav,,5fbc0e54b3efb70778c86227,2021-07-09_19h05.53.304,Agingstudy_mst,2020.2.10,Win32,60,60e8550594adb1982c6cb1b5,60e8813cec66564ae0f67191,,,,,F,,,,,,,,,,,,,,,1,1,0.4266,0,69,69,69,1,1,OLD,OLD,,,,,,,,
,,,,,,,,,,,,,,,,TestWords/RAY_PA_TI.wav,,5fbc0e54b3efb70778c86227,2021-07-09_19h05.53.304,Agingstudy_mst,2020.2.10,Win32,60,60e8550594adb1982c6cb1b5,60e8813cec66564ae0f67191,,,,,F,,,,,,,,,,,,,,,1,1,0.6364,0,70,70,70,1,1,OLD,OLD,,,,,,,,
,,,,,,,,,,,,,,,,TestWords/SA_GI_TAI.wav,,5fbc0e54b3efb70778c86227,2021-07-09_19h05.53.304,Agingstudy_mst,2020.2.10,Win32,60,60e8550594adb1982c6cb1b5,60e8813cec66564ae0f67191,,,,,F,,,,,,,,,,,,,,,2,1,0.303,0,71,71,71,1,2,NEW,SIMILAR,,,,,,,,
,,,,,,,,,,,,,,,,TestWords/MO_DAY_PU.wav,,5fbc0e54b3efb70778c86227,2021-07-09_19h05.53.304,Agingstudy_mst,2020.2.10,Win32,60,60e8550594adb1982c6cb1b5,60e8813cec66564ae0f67191,,,,,F,,,,,,,,,,,,,,,2,1,0.3198,0,72,72,72,1,2,NEW,SIMILAR,,,,,,,,
,,,,,,,,,,,,,,,,TestWords/KO_SU_FAI.wav,,5fbc0e54b3efb70778c86227,2021-07-09_19h05.53.304,Agingstudy_mst,2020.2.10,Win32,60,60e8550594adb1982c6cb1b5,60e8813cec66564ae0f67191,,,,,F,,,,,,,,,,,,,,,1,1,0.8372,0,73,73,73,1,1,OLD,OLD,,,,,,,,
,,,,,,,,,,,,,,,,TestWords/RAI_ZO_FU.wav,,5fbc0e54b3efb70778c86227,2021-07-09_19h05.53.304,Agingstudy_mst,2020.2.10,Win32,60,60e8550594adb1982c6cb1b5,60e8813cec66564ae0f67191,,,,,F,,,,,,,,,,,,,,,2,1,2.7211,0,74,74,74,1,2,NEW,SIMILAR,,,,,,,,
,,,,,,,,,,,,,,,,TestWords/GA_MU_ZI.wav,,5fbc0e54b3efb70778c86227,2021-07-09_19h05.53.304,Agingstudy_mst,2020.2.10,Win32,60,60e8550594adb1982c6cb1b5,60e8813cec66564ae0f67191,,,,,F,,,,,,,,,,,,,,,1,1,0.4904,0,75,75,75,1,1,OLD,OLD,,,,,,,,
,,,,,,,,,,,,,,,,TestWords/DAI_RU_CHI.wav,,5fbc0e54b3efb70778c86227,2021-07-09_19h05.53.304,Agingstudy_mst,2020.2.10,Win32,60,60e8550594adb1982c6cb1b5,60e8813cec66564ae0f67191,,,,,F,,,,,,,,,,,,,,,1,1,0.5528,0,76,76,76,1,1,OLD,OLD,,,,,,,,
,,,,,,,,,,,,,,,,TestWords/TAI_GI_SA.wav,,5fbc0e54b3efb70778c86227,2021-07-09_19h05.53.304,Agingstudy_mst,2020.2.10,Win32,60,60e8550594adb1982c6cb1b5,60e8813cec66564ae0f67191,,,,,F,,,,,,,,,,,,,,,1,0,1.0707,0,77,77,77,1,2,NEW,SIMILAR,,,,,,,,
,,,,,,,,,,,,,,,,TestWords/RAY_PA_TI.wav,,5fbc0e54b3efb70778c86227,2021-07-09_19h05.53.304,Agingstudy_mst,2020.2.10,Win32,60,60e8550594adb1982c6cb1b5,60e8813cec66564ae0f67191,,,,,F,,,,,,,,,,,,,,,1,1,0.37,0,78,78,78,1,1,OLD,OLD,,,,,,,,
,,,,,,,,,,,,,,,,TestWords/PU_DAY_MO.wav,,5fbc0e54b3efb70778c86227,2021-07-09_19h05.53.304,Agingstudy_mst,2020.2.10,Win32,60,60e8550594adb1982c6cb1b5,60e8813cec66564ae0f67191,,,,,F,,,,,,,,,,,,,,,2,1,0.203,0,79,79,79,1,2,NEW,SIMILAR,,,,,,,,
,,,,,,,,,,,,,,,,TestWords/KO_SU_FAI.wav,,5fbc0e54b3efb70778c86227,2021-07-09_19h05.53.304,Agingstudy_mst,2020.2.10,Win32,60,60e8550594adb1982c6cb1b5,60e8813cec66564ae0f67191,,,,,F,,,,,,,,,,,,,,,1,1,1.7374,0,80,80,80,1,1,OLD,OLD,,,,,,,,
,,,,,,,,,,,,,,,,TestWords/ZO_RAI_FU.wav,,5fbc0e54b3efb70778c86227,2021-07-09_19h05.53.304,Agingstudy_mst,2020.2.10,Win32,60,60e8550594adb1982c6cb1b5,60e8813cec66564ae0f67191,,,,,F,,,,,,,,,,,,,,,2,1,0.5218,0,81,81,81,1,2,NEW,SIMILAR,,,,,,,,
,,,,,,,,,,,,,,,,TestWords/GA_MU_ZI.wav,,5fbc0e54b3efb70778c86227,2021-07-09_19h05.53.304,Agingstudy_mst,2020.2.10,Win32,60,60e8550594adb1982c6cb1b5,60e8813cec66564ae0f67191,,,,,F,,,,,,,,,,,,,,,1,1,0.3385,0,82,82,82,1,1,OLD,OLD,,,,,,,,
,,,,,,,,,,,,,,,,TestWords/RAY_PA_TI.wav,,5fbc0e54b3efb70778c86227,2021-07-09_19h05.53.304,Agingstudy_mst,2020.2.10,Win32,60,60e8550594adb1982c6cb1b5,60e8813cec66564ae0f67191,,,,,F,,,,,,,,,,,,,,,1,1,0.5392,0,83,83,83,1,1,OLD,OLD,,,,,,,,
,,,,,,,,,,,,,,,,TestWords/DAI_RU_CHI.wav,,5fbc0e54b3efb70778c86227,2021-07-09_19h05.53.304,Agingstudy_mst,2020.2.10,Win32,60,60e8550594adb1982c6cb1b5,60e8813cec66564ae0f67191,,,,,F,,,,,,,,,,,,,,,1,1,0.5869,0,84,84,84,1,1,OLD,OLD,,,,,,,,
,,,,,,,,,,,,,,,,TestWords/GA_MU_ZI.wav,,5fbc0e54b3efb70778c86227,2021-07-09_19h05.53.304,Agingstudy_mst,2020.2.10,Win32,60,60e8550594adb1982c6cb1b5,60e8813cec66564ae0f67191,,,,,F,,,,,,,,,,,,,,,1,1,0.6838,0,85,85,85,1,1,OLD,OLD,,,,,,,,
,,,,,,,,,,,,,,,,TestWords/NO_WA_BAY.wav,,5fbc0e54b3efb70778c86227,2021-07-09_19h05.53.304,Agingstudy_mst,2020.2.10,Win32,60,60e8550594adb1982c6cb1b5,60e8813cec66564ae0f67191,,,,,F,,,,,,,,,,,,,,,2,1,0.221,0,86,86,86,1,2,NEW,NEW,,,,,,,,
,,,,,,,,,,,,,,,,TestWords/FU_ZO_RAI.wav,,5fbc0e54b3efb70778c86227,2021-07-09_19h05.53.304,Agingstudy_mst,2020.2.10,Win32,60,60e8550594adb1982c6cb1b5,60e8813cec66564ae0f67191,,,,,F,,,,,,,,,,,,,,,2,1,0.5305,0,87,87,87,1,2,NEW,SIMILAR,,,,,,,,
,,,,,,,,,,,,,,,,TestWords/KO_SU_FAI.wav,,5fbc0e54b3efb70778c86227,2021-07-09_19h05.53.304,Agingstudy_mst,2020.2.10,Win32,60,60e8550594adb1982c6cb1b5,60e8813cec66564ae0f67191,,,,,F,,,,,,,,,,,,,,,1,1,0.8181,0,88,88,88,1,1,OLD,OLD,,,,,,,,
,,,,,,,,,,,,,,,,TestWords/PU_MO_DAY.wav,,5fbc0e54b3efb70778c86227,2021-07-09_19h05.53.304,Agingstudy_mst,2020.2.10,Win32,60,60e8550594adb1982c6cb1b5,60e8813cec66564ae0f67191,,,,,F,,,,,,,,,,,,,,,2,1,0.6361,0,89,89,89,1,2,NEW,SIMILAR,,,,,,,,
,,,,,,,,,,,,,,,,TestWords/RAY_PA_TI.wav,,5fbc0e54b3efb70778c86227,2021-07-09_19h05.53.304,Agingstudy_mst,2020.2.10,Win32,60,60e8550594adb1982c6cb1b5,60e8813cec66564ae0f67191,,,,,F,,,,,,,,,,,,,,,1,1,0.2724,0,90,90,90,1,1,OLD,OLD,,,,,,,,
,,,,,,,,,,,,,,,,TestWords/DAI_RU_CHI.wav,,5fbc0e54b3efb70778c86227,2021-07-09_19h05.53.304,Agingstudy_mst,2020.2.10,Win32,60,60e8550594adb1982c6cb1b5,60e8813cec66564ae0f67191,,,,,F,,,,,,,,,,,,,,,1,1,0.2043,0,91,91,91,1,1,OLD,OLD,,,,,,,,
,,,,,,,,,,,,,,,,TestWords/RAI_FU_ZO.wav,,5fbc0e54b3efb70778c86227,2021-07-09_19h05.53.304,Agingstudy_mst,2020.2.10,Win32,60,60e8550594adb1982c6cb1b5,60e8813cec66564ae0f67191,,,,,F,,,,,,,,,,,,,,,2,1,0.6195,0,92,92,92,1,2,NEW,SIMILAR,,,,,,,,
,,,,,,,,,,,,,,,,TestWords/GA_MU_ZI.wav,,5fbc0e54b3efb70778c86227,2021-07-09_19h05.53.304,Agingstudy_mst,2020.2.10,Win32,60,60e8550594adb1982c6cb1b5,60e8813cec66564ae0f67191,,,,,F,,,,,,,,,,,,,,,1,1,0.3385,0,93,93,93,1,1,OLD,OLD,,,,,,,,
,,,,,,,,,,,,,,,,TestWords/HA_SI_JAI.wav,,5fbc0e54b3efb70778c86227,2021-07-09_19h05.53.304,Agingstudy_mst,2020.2.10,Win32,60,60e8550594adb1982c6cb1b5,60e8813cec66564ae0f67191,,,,,F,,,,,,,,,,,,,,,2,1,0.5383,0,94,94,94,1,2,NEW,NEW,,,,,,,,
,,,,,,,,,,,,,,,,TestWords/MO_PU_DAY.wav,,5fbc0e54b3efb70778c86227,2021-07-09_19h05.53.304,Agingstudy_mst,2020.2.10,Win32,60,60e8550594adb1982c6cb1b5,60e8813cec66564ae0f67191,,,,,F,,,,,,,,,,,,,,,2,1,0.9199,0,95,95,95,1,2,NEW,SIMILAR,,,,,,,,
,,,,,,,,,,,,,,,,TestWords/LA_ZAY_CHAI.wav,,5fbc0e54b3efb70778c86227,2021-07-09_19h05.53.304,Agingstudy_mst,2020.2.10,Win32,60,60e8550594adb1982c6cb1b5,60e8813cec66564ae0f67191,,,,,F,,,,,,,,,,,,,,,2,1,0.4038,0,96,96,96,1,2,NEW,NEW,,,,,,,,
,,,,,,,,,,,,,,,,TestWords/GA_MU_ZI.wav,,5fbc0e54b3efb70778c86227,2021-07-09_19h05.53.304,Agingstudy_mst,2020.2.10,Win32,60,60e8550594adb1982c6cb1b5,60e8813cec66564ae0f67191,,,,,F,,,,,,,,,,,,,,,1,1,0.1721,0,97,97,97,1,1,OLD,OLD,,,,,,,,
,,,,,,,,,,,,,,,,TestWords/ZO_FU_RAI.wav,,5fbc0e54b3efb70778c86227,2021-07-09_19h05.53.304,Agingstudy_mst,2020.2.10,Win32,60,60e8550594adb1982c6cb1b5,60e8813cec66564ae0f67191,,,,,F,,,,,,,,,,,,,,,1,0,2.4364,0,98,98,98,1,2,NEW,SIMILAR,,,,,,,,
,,,,,,,,,,,,,,,,TestWords/WAI_RO_JU.wav,,5fbc0e54b3efb70778c86227,2021-07-09_19h05.53.304,Agingstudy_mst,2020.2.10,Win32,60,60e8550594adb1982c6cb1b5,60e8813cec66564ae0f67191,,,,,F,,,,,,,,,,,,,,,2,1,0.7706,0,99,99,99,1,2,NEW,NEW,,,,,,,,
,,,,,,,,,,,,,,,,,,5fbc0e54b3efb70778c86227,2021-07-09_19h05.53.304,Agingstudy_mst,2020.2.10,Win32,60,60e8550594adb1982c6cb1b5,60e8813cec66564ae0f67191,,,,,,,,,,,,,,,,,,,,,,,,,,,,,,,0,0,0,0,1,,,
,,,,,,,,,,,,,,,,,,5fbc0e54b3efb70778c86227,2021-07-09_19h05.53.304,Agingstudy_mst,2020.2.10,Win32,60,60e8550594adb1982c6cb1b5,60e8813cec66564ae0f67191,,,,,,,,,,,,,,,,,,,,,,,,,,,,,,,,,,,,return,36.9529,
