Welcome0Continue.keys,Welcome0Continue.rt,SoundCheckBegin.keys,SoundCheckBegin.rt,SoundCheckEndKey.keys,SoundCheckEndKey.rt,HeadphoneContinueKey.keys,HeadphoneContinueKey.rt,CheckResp.keys,CheckResp.corr,CheckResp.rt,HeadphoneLoop.thisRepN,HeadphoneLoop.thisTrialN,HeadphoneLoop.thisN,HeadphoneLoop.thisIndex,HeadphoneLoop.ran,File,Correct,participant,date,expName,psychopyVersion,OS,frameRate,STUDY_ID,SESSION_ID,ContinueKey8.keys,ContinueKey8.rt,MSTWelcomeContKey.keys,MSTWelcomeContKey.rt,Condition,MSTTrainIntroKey.keys,MSTTrainIntroKey.rt,MSTTrainKeys.keys,MSTTrainKeys.corr,MSTTrainKeys.rt,MSTTrainLoop.thisRepN,MSTTrainLoop.thisTrialN,MSTTrainLoop.thisN,MSTTrainLoop.thisIndex,MSTTrainLoop.ran,SoundFile,Type,MSTTestBeginKey.keys,MSTTestBeginKey.rt,MST_resp.keys,MST_resp.corr,MST_resp.rt,MSTPlayLoop.thisRepN,MSTPlayLoop.thisTrialN,MSTPlayLoop.thisN,MSTPlayLoop.thisIndex,MSTPlayLoop.ran,WordCorrect,Correct_type,WordType,MSTLoop.thisRepN,MSTLoop.thisTrialN,MSTLoop.thisN,MSTLoop.thisIndex,MSTLoop.ran,EndAllKey.keys,EndAllKey.rt,FeedbackResp.text
space,2.256,space,1.961,space,2.2299,space,4.9724,1,0,1.0459,0,0,0,3,1,Headphone/t2_2.wav,2,60d754d900f33c946d172323,2021-07-11_18h17.49.526,Agingstudy_mst,2020.2.10,MacIntel,60,60e8550594adb1982c6cb1b5,60eb2748e434bf8a49e03e88,,,,,,,,,,,,,,,,,,,,,,,,,,,,,,,,,,,,,,
,,,,,,,,3,1,0.4362,0,1,1,4,1,Headphone/t3_1.wav,3,60d754d900f33c946d172323,2021-07-11_18h17.49.526,Agingstudy_mst,2020.2.10,MacIntel,60,60e8550594adb1982c6cb1b5,60eb2748e434bf8a49e03e88,,,,,,,,,,,,,,,,,,,,,,,,,,,,,,,,,,,,,,
,,,,,,,,1,1,0.5411,0,2,2,1,1,Headphone/t1_2.wav,1,60d754d900f33c946d172323,2021-07-11_18h17.49.526,Agingstudy_mst,2020.2.10,MacIntel,60,60e8550594adb1982c6cb1b5,60eb2748e434bf8a49e03e88,,,,,,,,,,,,,,,,,,,,,,,,,,,,,,,,,,,,,,
,,,,,,,,3,1,0.5541,0,3,3,5,1,Headphone/t3_2.wav,3,60d754d900f33c946d172323,2021-07-11_18h17.49.526,Agingstudy_mst,2020.2.10,MacIntel,60,60e8550594adb1982c6cb1b5,60eb2748e434bf8a49e03e88,,,,,,,,,,,,,,,,,,,,,,,,,,,,,,,,,,,,,,
,,,,,,,,1,0,0.4245,0,4,4,2,1,Headphone/t2_1.wav,2,60d754d900f33c946d172323,2021-07-11_18h17.49.526,Agingstudy_mst,2020.2.10,MacIntel,60,60e8550594adb1982c6cb1b5,60eb2748e434bf8a49e03e88,,,,,,,,,,,,,,,,,,,,,,,,,,,,,,,,,,,,,,
,,,,,,,,3,0,0.3071,0,5,5,0,1,Headphone/t1_1.wav,1,60d754d900f33c946d172323,2021-07-11_18h17.49.526,Agingstudy_mst,2020.2.10,MacIntel,60,60e8550594adb1982c6cb1b5,60eb2748e434bf8a49e03e88,,,,,,,,,,,,,,,,,,,,,,,,,,,,,,,,,,,,,,
,,,,,,,,,,,,,,,,,2,60d754d900f33c946d172323,2021-07-11_18h17.49.526,Agingstudy_mst,2020.2.10,MacIntel,60,60e8550594adb1982c6cb1b5,60eb2748e434bf8a49e03e88,space,50.9661,space,5.5337,1,space,2.49,2,1,5.1669,0,0,0,0,1,Training/FO_YI_LAY.wav,NEW,,,,,,,,,,,,,,,,,,,,,
,,,,,,,,,,,,,,,,,1,60d754d900f33c946d172323,2021-07-11_18h17.49.526,Agingstudy_mst,2020.2.10,MacIntel,60,60e8550594adb1982c6cb1b5,60eb2748e434bf8a49e03e88,,,,,,,,1,1,2.8489,0,1,1,1,1,Training/FO_YI_LAY.wav,OLD,,,,,,,,,,,,,,,,,,,,,
,,,,,,,,,,,,,,,,,2,60d754d900f33c946d172323,2021-07-11_18h17.49.526,Agingstudy_mst,2020.2.10,MacIntel,60,60e8550594adb1982c6cb1b5,60eb2748e434bf8a49e03e88,,,,,,,,2,1,1.617,0,2,2,2,1,Training/YO_BU_JAY.wav,NEW,,,,,,,,,,,,,,,,,,,,,
,,,,,,,,,,,,,,,,,2,60d754d900f33c946d172323,2021-07-11_18h17.49.526,Agingstudy_mst,2020.2.10,MacIntel,60,60e8550594adb1982c6cb1b5,60eb2748e434bf8a49e03e88,,,,,,,,2,1,0.9119,0,3,3,3,1,Training/JAY_YO_BU.wav,SIMILAR,,,,,,,,,,,,,,,,,,,,,
,,,,,,,,,,,,,,,,,1,60d754d900f33c946d172323,2021-07-11_18h17.49.526,Agingstudy_mst,2020.2.10,MacIntel,60,60e8550594adb1982c6cb1b5,60eb2748e434bf8a49e03e88,,,,,,,,1,1,0.9988,0,4,4,4,1,Training/FO_YI_LAY.wav,OLD,,,,,,,,,,,,,,,,,,,,,
,,,,,,,,,,,,,,,,TestWords/HA_SI_JAI.wav,,60d754d900f33c946d172323,2021-07-11_18h17.49.526,Agingstudy_mst,2020.2.10,MacIntel,60,60e8550594adb1982c6cb1b5,60eb2748e434bf8a49e03e88,,,,,A,,,,,,,,,,,,,space,5.2754,2,1,2.4437,0,0,0,0,1,2,NEW,NEW,,,,,,,,
,,,,,,,,,,,,,,,,TestWords/KO_SU_FAI.wav,,60d754d900f33c946d172323,2021-07-11_18h17.49.526,Agingstudy_mst,2020.2.10,MacIntel,60,60e8550594adb1982c6cb1b5,60eb2748e434bf8a49e03e88,,,,,A,,,,,,,,,,,,,,,2,1,0.6913,0,1,1,1,1,2,NEW,NEW,,,,,,,,
,,,,,,,,,,,,,,,,TestWords/TAI_GI_SA.wav,,60d754d900f33c946d172323,2021-07-11_18h17.49.526,Agingstudy_mst,2020.2.10,MacIntel,60,60e8550594adb1982c6cb1b5,60eb2748e434bf8a49e03e88,,,,,A,,,,,,,,,,,,,,,2,1,0.3899,0,2,2,2,1,2,NEW,NEW,,,,,,,,
,,,,,,,,,,,,,,,,TestWords/KAI_LAY_TA.wav,,60d754d900f33c946d172323,2021-07-11_18h17.49.526,Agingstudy_mst,2020.2.10,MacIntel,60,60e8550594adb1982c6cb1b5,60eb2748e434bf8a49e03e88,,,,,A,,,,,,,,,,,,,,,2,1,0.8023,0,3,3,3,1,2,NEW,NEW,,,,,,,,
,,,,,,,,,,,,,,,,TestWords/RAY_PA_TI.wav,,60d754d900f33c946d172323,2021-07-11_18h17.49.526,Agingstudy_mst,2020.2.10,MacIntel,60,60e8550594adb1982c6cb1b5,60eb2748e434bf8a49e03e88,,,,,A,,,,,,,,,,,,,,,2,1,0.9087,0,4,4,4,1,2,NEW,NEW,,,,,,,,
,,,,,,,,,,,,,,,,TestWords/KO_SU_FAI.wav,,60d754d900f33c946d172323,2021-07-11_18h17.49.526,Agingstudy_mst,2020.2.10,MacIntel,60,60e8550594adb1982c6cb1b5,60eb2748e434bf8a49e03e88,,,,,A,,,,,,,,,,,,,,,1,1,0.7547,0,5,5,5,1,1,OLD,OLD,,,,,,,,
,,,,,,,,,,,,,,,,TestWords/TAI_SA_GI.wav,,60d754d900f33c946d172323,2021-07-11_18h17.49.526,Agingstudy_mst,2020.2.10,MacIntel,60,60e8550594adb1982c6cb1b5,60eb2748e434bf8a49e03e88,,,,,A,,,,,,,,,,,,,,,1,0,0.3192,0,6,6,6,1,2,NEW,SIMILAR,,,,,,,,
,,,,,,,,,,,,,,,,TestWords/KAI_LAY_TA.wav,,60d754d900f33c946d172323,2021-07-11_18h17.49.526,Agingstudy_mst,2020.2.10,MacIntel,60,60e8550594adb1982c6cb1b5,60eb2748e434bf8a49e03e88,,,,,A,,,,,,,,,,,,,,,2,0,0.191,0,7,7,7,1,1,OLD,OLD,,,,,,,,
,,,,,,,,,,,,,,,,TestWords/NA_WAI_VU.wav,,60d754d900f33c946d172323,2021-07-11_18h17.49.526,Agingstudy_mst,2020.2.10,MacIntel,60,60e8550594adb1982c6cb1b5,60eb2748e434bf8a49e03e88,,,,,A,,,,,,,,,,,,,,,2,1,0.5543,0,8,8,8,1,2,NEW,NEW,,,,,,,,
,,,,,,,,,,,,,,,,TestWords/KO_SU_FAI.wav,,60d754d900f33c946d172323,2021-07-11_18h17.49.526,Agingstudy_mst,2020.2.10,MacIntel,60,60e8550594adb1982c6cb1b5,60eb2748e434bf8a49e03e88,,,,,A,,,,,,,,,,,,,,,1,1,0.2916,0,9,9,9,1,1,OLD,OLD,,,,,,,,
,,,,,,,,,,,,,,,,TestWords/RAY_PA_TI.wav,,60d754d900f33c946d172323,2021-07-11_18h17.49.526,Agingstudy_mst,2020.2.10,MacIntel,60,60e8550594adb1982c6cb1b5,60eb2748e434bf8a49e03e88,,,,,A,,,,,,,,,,,,,,,1,1,0.2071,0,10,10,10,1,1,OLD,OLD,,,,,,,,
,,,,,,,,,,,,,,,,TestWords/GI_SA_TAI.wav,,60d754d900f33c946d172323,2021-07-11_18h17.49.526,Agingstudy_mst,2020.2.10,MacIntel,60,60e8550594adb1982c6cb1b5,60eb2748e434bf8a49e03e88,,,,,A,,,,,,,,,,,,,,,2,1,1.857,0,11,11,11,1,2,NEW,SIMILAR,,,,,,,,
,,,,,,,,,,,,,,,,TestWords/WAI_VU_NA.wav,,60d754d900f33c946d172323,2021-07-11_18h17.49.526,Agingstudy_mst,2020.2.10,MacIntel,60,60e8550594adb1982c6cb1b5,60eb2748e434bf8a49e03e88,,,,,A,,,,,,,,,,,,,,,2,1,2.0267,0,12,12,12,1,2,NEW,SIMILAR,,,,,,,,
,,,,,,,,,,,,,,,,TestWords/KAI_LAY_TA.wav,,60d754d900f33c946d172323,2021-07-11_18h17.49.526,Agingstudy_mst,2020.2.10,MacIntel,60,60e8550594adb1982c6cb1b5,60eb2748e434bf8a49e03e88,,,,,A,,,,,,,,,,,,,,,1,1,1.0218,0,13,13,13,1,1,OLD,OLD,,,,,,,,
,,,,,,,,,,,,,,,,TestWords/SI_VAI_CHU.wav,,60d754d900f33c946d172323,2021-07-11_18h17.49.526,Agingstudy_mst,2020.2.10,MacIntel,60,60e8550594adb1982c6cb1b5,60eb2748e434bf8a49e03e88,,,,,A,,,,,,,,,,,,,,,2,1,1.0434,0,14,14,14,1,2,NEW,NEW,,,,,,,,
,,,,,,,,,,,,,,,,TestWords/GI_TAI_SA.wav,,60d754d900f33c946d172323,2021-07-11_18h17.49.526,Agingstudy_mst,2020.2.10,MacIntel,60,60e8550594adb1982c6cb1b5,60eb2748e434bf8a49e03e88,,,,,A,,,,,,,,,,,,,,,1,0,0.8408,0,15,15,15,1,2,NEW,SIMILAR,,,,,,,,
,,,,,,,,,,,,,,,,TestWords/KO_SU_FAI.wav,,60d754d900f33c946d172323,2021-07-11_18h17.49.526,Agingstudy_mst,2020.2.10,MacIntel,60,60e8550594adb1982c6cb1b5,60eb2748e434bf8a49e03e88,,,,,A,,,,,,,,,,,,,,,2,0,0.6429,0,16,16,16,1,1,OLD,OLD,,,,,,,,
,,,,,,,,,,,,,,,,TestWords/DA_CHU_VAI.wav,,60d754d900f33c946d172323,2021-07-11_18h17.49.526,Agingstudy_mst,2020.2.10,MacIntel,60,60e8550594adb1982c6cb1b5,60eb2748e434bf8a49e03e88,,,,,A,,,,,,,,,,,,,,,2,1,0.6396,0,17,17,17,1,2,NEW,NEW,,,,,,,,
,,,,,,,,,,,,,,,,TestWords/RAY_PA_TI.wav,,60d754d900f33c946d172323,2021-07-11_18h17.49.526,Agingstudy_mst,2020.2.10,MacIntel,60,60e8550594adb1982c6cb1b5,60eb2748e434bf8a49e03e88,,,,,A,,,,,,,,,,,,,,,1,1,0.2564,0,18,18,18,1,1,OLD,OLD,,,,,,,,
,,,,,,,,,,,,,,,,TestWords/KAI_LAY_TA.wav,,60d754d900f33c946d172323,2021-07-11_18h17.49.526,Agingstudy_mst,2020.2.10,MacIntel,60,60e8550594adb1982c6cb1b5,60eb2748e434bf8a49e03e88,,,,,A,,,,,,,,,,,,,,,1,1,0.4071,0,19,19,19,1,1,OLD,OLD,,,,,,,,
,,,,,,,,,,,,,,,,TestWords/WAI_NA_VU.wav,,60d754d900f33c946d172323,2021-07-11_18h17.49.526,Agingstudy_mst,2020.2.10,MacIntel,60,60e8550594adb1982c6cb1b5,60eb2748e434bf8a49e03e88,,,,,A,,,,,,,,,,,,,,,2,1,0.4929,0,20,20,20,1,2,NEW,SIMILAR,,,,,,,,
,,,,,,,,,,,,,,,,TestWords/KO_SU_FAI.wav,,60d754d900f33c946d172323,2021-07-11_18h17.49.526,Agingstudy_mst,2020.2.10,MacIntel,60,60e8550594adb1982c6cb1b5,60eb2748e434bf8a49e03e88,,,,,A,,,,,,,,,,,,,,,1,1,0.826,0,21,21,21,1,1,OLD,OLD,,,,,,,,
,,,,,,,,,,,,,,,,TestWords/SA_TAI_GI.wav,,60d754d900f33c946d172323,2021-07-11_18h17.49.526,Agingstudy_mst,2020.2.10,MacIntel,60,60e8550594adb1982c6cb1b5,60eb2748e434bf8a49e03e88,,,,,A,,,,,,,,,,,,,,,2,1,1.2574,0,22,22,22,1,2,NEW,SIMILAR,,,,,,,,
,,,,,,,,,,,,,,,,TestWords/RAY_PA_TI.wav,,60d754d900f33c946d172323,2021-07-11_18h17.49.526,Agingstudy_mst,2020.2.10,MacIntel,60,60e8550594adb1982c6cb1b5,60eb2748e434bf8a49e03e88,,,,,A,,,,,,,,,,,,,,,2,0,5.7942,0,23,23,23,1,1,OLD,OLD,,,,,,,,
,,,,,,,,,,,,,,,,TestWords/VU_NA_WAI.wav,,60d754d900f33c946d172323,2021-07-11_18h17.49.526,Agingstudy_mst,2020.2.10,MacIntel,60,60e8550594adb1982c6cb1b5,60eb2748e434bf8a49e03e88,,,,,A,,,,,,,,,,,,,,,2,1,0.4596,0,24,24,24,1,2,NEW,SIMILAR,,,,,,,,
,,,,,,,,,,,,,,,,TestWords/KAI_LAY_TA.wav,,60d754d900f33c946d172323,2021-07-11_18h17.49.526,Agingstudy_mst,2020.2.10,MacIntel,60,60e8550594adb1982c6cb1b5,60eb2748e434bf8a49e03e88,,,,,A,,,,,,,,,,,,,,,2,0,0.5444,0,25,25,25,1,1,OLD,OLD,,,,,,,,
,,,,,,,,,,,,,,,,TestWords/WAI_RO_JU.wav,,60d754d900f33c946d172323,2021-07-11_18h17.49.526,Agingstudy_mst,2020.2.10,MacIntel,60,60e8550594adb1982c6cb1b5,60eb2748e434bf8a49e03e88,,,,,A,,,,,,,,,,,,,,,2,1,0.2094,0,26,26,26,1,2,NEW,NEW,,,,,,,,
,,,,,,,,,,,,,,,,TestWords/KO_SU_FAI.wav,,60d754d900f33c946d172323,2021-07-11_18h17.49.526,Agingstudy_mst,2020.2.10,MacIntel,60,60e8550594adb1982c6cb1b5,60eb2748e434bf8a49e03e88,,,,,A,,,,,,,,,,,,,,,1,1,0.2419,0,27,27,27,1,1,OLD,OLD,,,,,,,,
,,,,,,,,,,,,,,,,TestWords/SA_GI_TAI.wav,,60d754d900f33c946d172323,2021-07-11_18h17.49.526,Agingstudy_mst,2020.2.10,MacIntel,60,60e8550594adb1982c6cb1b5,60eb2748e434bf8a49e03e88,,,,,A,,,,,,,,,,,,,,,1,0,0.1596,0,28,28,28,1,2,NEW,SIMILAR,,,,,,,,
,,,,,,,,,,,,,,,,TestWords/RAY_PA_TI.wav,,60d754d900f33c946d172323,2021-07-11_18h17.49.526,Agingstudy_mst,2020.2.10,MacIntel,60,60e8550594adb1982c6cb1b5,60eb2748e434bf8a49e03e88,,,,,A,,,,,,,,,,,,,,,2,0,0.2933,0,29,29,29,1,1,OLD,OLD,,,,,,,,
,,,,,,,,,,,,,,,,TestWords/GA_MU_ZI.wav,,60d754d900f33c946d172323,2021-07-11_18h17.49.526,Agingstudy_mst,2020.2.10,MacIntel,60,60e8550594adb1982c6cb1b5,60eb2748e434bf8a49e03e88,,,,,A,,,,,,,,,,,,,,,2,1,0.3903,0,30,30,30,1,2,NEW,NEW,,,,,,,,
,,,,,,,,,,,,,,,,TestWords/KAI_LAY_TA.wav,,60d754d900f33c946d172323,2021-07-11_18h17.49.526,Agingstudy_mst,2020.2.10,MacIntel,60,60e8550594adb1982c6cb1b5,60eb2748e434bf8a49e03e88,,,,,A,,,,,,,,,,,,,,,1,1,0.2447,0,31,31,31,1,1,OLD,OLD,,,,,,,,
,,,,,,,,,,,,,,,,TestWords/VU_WAI_NA.wav,,60d754d900f33c946d172323,2021-07-11_18h17.49.526,Agingstudy_mst,2020.2.10,MacIntel,60,60e8550594adb1982c6cb1b5,60eb2748e434bf8a49e03e88,,,,,A,,,,,,,,,,,,,,,2,1,0.4579,0,32,32,32,1,2,NEW,SIMILAR,,,,,,,,
,,,,,,,,,,,,,,,,TestWords/RAY_PA_TI.wav,,60d754d900f33c946d172323,2021-07-11_18h17.49.526,Agingstudy_mst,2020.2.10,MacIntel,60,60e8550594adb1982c6cb1b5,60eb2748e434bf8a49e03e88,,,,,A,,,,,,,,,,,,,,,1,1,0.1765,0,33,33,33,1,1,OLD,OLD,,,,,,,,
,,,,,,,,,,,,,,,,TestWords/LI_KAY_BA.wav,,60d754d900f33c946d172323,2021-07-11_18h17.49.526,Agingstudy_mst,2020.2.10,MacIntel,60,60e8550594adb1982c6cb1b5,60eb2748e434bf8a49e03e88,,,,,A,,,,,,,,,,,,,,,2,1,0.7371,0,34,34,34,1,2,NEW,NEW,,,,,,,,
,,,,,,,,,,,,,,,,TestWords/HI_NAY_VA.wav,,60d754d900f33c946d172323,2021-07-11_18h17.49.526,Agingstudy_mst,2020.2.10,MacIntel,60,60e8550594adb1982c6cb1b5,60eb2748e434bf8a49e03e88,,,,,A,,,,,,,,,,,,,,,1,0,0.5052,0,35,35,35,1,2,NEW,NEW,,,,,,,,
,,,,,,,,,,,,,,,,TestWords/KO_SU_FAI.wav,,60d754d900f33c946d172323,2021-07-11_18h17.49.526,Agingstudy_mst,2020.2.10,MacIntel,60,60e8550594adb1982c6cb1b5,60eb2748e434bf8a49e03e88,,,,,A,,,,,,,,,,,,,,,1,1,0.3581,0,36,36,36,1,1,OLD,OLD,,,,,,,,
,,,,,,,,,,,,,,,,TestWords/NA_VU_WAI.wav,,60d754d900f33c946d172323,2021-07-11_18h17.49.526,Agingstudy_mst,2020.2.10,MacIntel,60,60e8550594adb1982c6cb1b5,60eb2748e434bf8a49e03e88,,,,,A,,,,,,,,,,,,,,,2,1,0.5919,0,37,37,37,1,2,NEW,SIMILAR,,,,,,,,
,,,,,,,,,,,,,,,,TestWords/GA_MU_ZI.wav,,60d754d900f33c946d172323,2021-07-11_18h17.49.526,Agingstudy_mst,2020.2.10,MacIntel,60,60e8550594adb1982c6cb1b5,60eb2748e434bf8a49e03e88,,,,,A,,,,,,,,,,,,,,,2,0,1.0428,0,38,38,38,1,1,OLD,OLD,,,,,,,,
,,,,,,,,,,,,,,,,TestWords/KAI_LAY_TA.wav,,60d754d900f33c946d172323,2021-07-11_18h17.49.526,Agingstudy_mst,2020.2.10,MacIntel,60,60e8550594adb1982c6cb1b5,60eb2748e434bf8a49e03e88,,,,,A,,,,,,,,,,,,,,,1,1,0.7393,0,39,39,39,1,1,OLD,OLD,,,,,,,,
,,,,,,,,,,,,,,,,TestWords/DAI_RU_CHI.wav,,60d754d900f33c946d172323,2021-07-11_18h17.49.526,Agingstudy_mst,2020.2.10,MacIntel,60,60e8550594adb1982c6cb1b5,60eb2748e434bf8a49e03e88,,,,,A,,,,,,,,,,,,,,,2,1,0.843,0,40,40,40,1,2,NEW,NEW,,,,,,,,
,,,,,,,,,,,,,,,,TestWords/NU_CHAY_SO.wav,,60d754d900f33c946d172323,2021-07-11_18h17.49.526,Agingstudy_mst,2020.2.10,MacIntel,60,60e8550594adb1982c6cb1b5,60eb2748e434bf8a49e03e88,,,,,A,,,,,,,,,,,,,,,2,1,1.1242,0,41,41,41,1,2,NEW,NEW,,,,,,,,
,,,,,,,,,,,,,,,,TestWords/RAY_PA_TI.wav,,60d754d900f33c946d172323,2021-07-11_18h17.49.526,Agingstudy_mst,2020.2.10,MacIntel,60,60e8550594adb1982c6cb1b5,60eb2748e434bf8a49e03e88,,,,,A,,,,,,,,,,,,,,,1,1,0.3515,0,42,42,42,1,1,OLD,OLD,,,,,,,,
,,,,,,,,,,,,,,,,TestWords/BA_KAY_LI.wav,,60d754d900f33c946d172323,2021-07-11_18h17.49.526,Agingstudy_mst,2020.2.10,MacIntel,60,60e8550594adb1982c6cb1b5,60eb2748e434bf8a49e03e88,,,,,A,,,,,,,,,,,,,,,2,1,0.77,0,43,43,43,1,2,NEW,SIMILAR,,,,,,,,
,,,,,,,,,,,,,,,,TestWords/KO_SU_FAI.wav,,60d754d900f33c946d172323,2021-07-11_18h17.49.526,Agingstudy_mst,2020.2.10,MacIntel,60,60e8550594adb1982c6cb1b5,60eb2748e434bf8a49e03e88,,,,,A,,,,,,,,,,,,,,,2,0,1.8427,0,44,44,44,1,1,OLD,OLD,,,,,,,,
,,,,,,,,,,,,,,,,TestWords/GA_MU_ZI.wav,,60d754d900f33c946d172323,2021-07-11_18h17.49.526,Agingstudy_mst,2020.2.10,MacIntel,60,60e8550594adb1982c6cb1b5,60eb2748e434bf8a49e03e88,,,,,A,,,,,,,,,,,,,,,2,0,0.4095,0,45,45,45,1,1,OLD,OLD,,,,,,,,
,,,,,,,,,,,,,,,,TestWords/CHU_LA_PAY.wav,,60d754d900f33c946d172323,2021-07-11_18h17.49.526,Agingstudy_mst,2020.2.10,MacIntel,60,60e8550594adb1982c6cb1b5,60eb2748e434bf8a49e03e88,,,,,A,,,,,,,,,,,,,,,2,1,1.104,0,46,46,46,1,2,NEW,NEW,,,,,,,,
,,,,,,,,,,,,,,,,TestWords/KAI_LAY_TA.wav,,60d754d900f33c946d172323,2021-07-11_18h17.49.526,Agingstudy_mst,2020.2.10,MacIntel,60,60e8550594adb1982c6cb1b5,60eb2748e434bf8a49e03e88,,,,,A,,,,,,,,,,,,,,,2,0,1.9258,0,47,47,47,1,1,OLD,OLD,,,,,,,,
,,,,,,,,,,,,,,,,TestWords/DAI_RU_CHI.wav,,60d754d900f33c946d172323,2021-07-11_18h17.49.526,Agingstudy_mst,2020.2.10,MacIntel,60,60e8550594adb1982c6cb1b5,60eb2748e434bf8a49e03e88,,,,,A,,,,,,,,,,,,,,,2,0,0.5082,0,48,48,48,1,1,OLD,OLD,,,,,,,,
,,,,,,,,,,,,,,,,TestWords/KO_SU_FAI.wav,,60d754d900f33c946d172323,2021-07-11_18h17.49.526,Agingstudy_mst,2020.2.10,MacIntel,60,60e8550594adb1982c6cb1b5,60eb2748e434bf8a49e03e88,,,,,A,,,,,,,,,,,,,,,1,1,0.3898,0,49,49,49,1,1,OLD,OLD,,,,,,,,
,,,,,,,,,,,,,,,,TestWords/KAY_LI_BA.wav,,60d754d900f33c946d172323,2021-07-11_18h17.49.526,Agingstudy_mst,2020.2.10,MacIntel,60,60e8550594adb1982c6cb1b5,60eb2748e434bf8a49e03e88,,,,,A,,,,,,,,,,,,,,,2,1,0.4055,0,50,50,50,1,2,NEW,SIMILAR,,,,,,,,
,,,,,,,,,,,,,,,,TestWords/RAY_PA_TI.wav,,60d754d900f33c946d172323,2021-07-11_18h17.49.526,Agingstudy_mst,2020.2.10,MacIntel,60,60e8550594adb1982c6cb1b5,60eb2748e434bf8a49e03e88,,,,,A,,,,,,,,,,,,,,,1,1,0.1757,0,51,51,51,1,1,OLD,OLD,,,,,,,,
,,,,,,,,,,,,,,,,TestWords/KAI_LAY_TA.wav,,60d754d900f33c946d172323,2021-07-11_18h17.49.526,Agingstudy_mst,2020.2.10,MacIntel,60,60e8550594adb1982c6cb1b5,60eb2748e434bf8a49e03e88,,,,,A,,,,,,,,,,,,,,,1,1,0.5528,0,52,52,52,1,1,OLD,OLD,,,,,,,,
,,,,,,,,,,,,,,,,TestWords/HO_NAY_VA.wav,,60d754d900f33c946d172323,2021-07-11_18h17.49.526,Agingstudy_mst,2020.2.10,MacIntel,60,60e8550594adb1982c6cb1b5,60eb2748e434bf8a49e03e88,,,,,A,,,,,,,,,,,,,,,2,1,0.5839,0,53,53,53,1,2,NEW,NEW,,,,,,,,
,,,,,,,,,,,,,,,,TestWords/GA_MU_ZI.wav,,60d754d900f33c946d172323,2021-07-11_18h17.49.526,Agingstudy_mst,2020.2.10,MacIntel,60,60e8550594adb1982c6cb1b5,60eb2748e434bf8a49e03e88,,,,,A,,,,,,,,,,,,,,,2,0,0.9718,0,54,54,54,1,1,OLD,OLD,,,,,,,,
,,,,,,,,,,,,,,,,TestWords/DAI_RU_CHI.wav,,60d754d900f33c946d172323,2021-07-11_18h17.49.526,Agingstudy_mst,2020.2.10,MacIntel,60,60e8550594adb1982c6cb1b5,60eb2748e434bf8a49e03e88,,,,,A,,,,,,,,,,,,,,,1,1,1.0096,0,55,55,55,1,1,OLD,OLD,,,,,,,,
,,,,,,,,,,,,,,,,TestWords/MO_PU_DAY.wav,,60d754d900f33c946d172323,2021-07-11_18h17.49.526,Agingstudy_mst,2020.2.10,MacIntel,60,60e8550594adb1982c6cb1b5,60eb2748e434bf8a49e03e88,,,,,A,,,,,,,,,,,,,,,2,1,1.1061,0,56,56,56,1,2,NEW,NEW,,,,,,,,
,,,,,,,,,,,,,,,,TestWords/KO_SU_FAI.wav,,60d754d900f33c946d172323,2021-07-11_18h17.49.526,Agingstudy_mst,2020.2.10,MacIntel,60,60e8550594adb1982c6cb1b5,60eb2748e434bf8a49e03e88,,,,,A,,,,,,,,,,,,,,,1,1,0.8446,0,57,57,57,1,1,OLD,OLD,,,,,,,,
,,,,,,,,,,,,,,,,TestWords/KAY_BA_LI.wav,,60d754d900f33c946d172323,2021-07-11_18h17.49.526,Agingstudy_mst,2020.2.10,MacIntel,60,60e8550594adb1982c6cb1b5,60eb2748e434bf8a49e03e88,,,,,A,,,,,,,,,,,,,,,2,1,1.3599,0,58,58,58,1,2,NEW,SIMILAR,,,,,,,,
,,,,,,,,,,,,,,,,TestWords/RAY_PA_TI.wav,,60d754d900f33c946d172323,2021-07-11_18h17.49.526,Agingstudy_mst,2020.2.10,MacIntel,60,60e8550594adb1982c6cb1b5,60eb2748e434bf8a49e03e88,,,,,A,,,,,,,,,,,,,,,1,1,0.2391,0,59,59,59,1,1,OLD,OLD,,,,,,,,
,,,,,,,,,,,,,,,,TestWords/KAI_LAY_TA.wav,,60d754d900f33c946d172323,2021-07-11_18h17.49.526,Agingstudy_mst,2020.2.10,MacIntel,60,60e8550594adb1982c6cb1b5,60eb2748e434bf8a49e03e88,,,,,A,,,,,,,,,,,,,,,1,1,1.3899,0,60,60,60,1,1,OLD,OLD,,,,,,,,
,,,,,,,,,,,,,,,,TestWords/GA_MU_ZI.wav,,60d754d900f33c946d172323,2021-07-11_18h17.49.526,Agingstudy_mst,2020.2.10,MacIntel,60,60e8550594adb1982c6cb1b5,60eb2748e434bf8a49e03e88,,,,,A,,,,,,,,,,,,,,,2,0,1.424,0,61,61,61,1,1,OLD,OLD,,,,,,,,
,,,,,,,,,,,,,,,,TestWords/DAY_PU_MO.wav,,60d754d900f33c946d172323,2021-07-11_18h17.49.526,Agingstudy_mst,2020.2.10,MacIntel,60,60e8550594adb1982c6cb1b5,60eb2748e434bf8a49e03e88,,,,,A,,,,,,,,,,,,,,,2,1,0.5884,0,62,62,62,1,2,NEW,SIMILAR,,,,,,,,
,,,,,,,,,,,,,,,,TestWords/DAI_RU_CHI.wav,,60d754d900f33c946d172323,2021-07-11_18h17.49.526,Agingstudy_mst,2020.2.10,MacIntel,60,60e8550594adb1982c6cb1b5,60eb2748e434bf8a49e03e88,,,,,A,,,,,,,,,,,,,,,1,1,0.6058,0,63,63,63,1,1,OLD,OLD,,,,,,,,
,,,,,,,,,,,,,,,,TestWords/LI_BA_KAY.wav,,60d754d900f33c946d172323,2021-07-11_18h17.49.526,Agingstudy_mst,2020.2.10,MacIntel,60,60e8550594adb1982c6cb1b5,60eb2748e434bf8a49e03e88,,,,,A,,,,,,,,,,,,,,,2,1,1.5234,0,64,64,64,1,2,NEW,SIMILAR,,,,,,,,
,,,,,,,,,,,,,,,,TestWords/KAI_LAY_TA.wav,,60d754d900f33c946d172323,2021-07-11_18h17.49.526,Agingstudy_mst,2020.2.10,MacIntel,60,60e8550594adb1982c6cb1b5,60eb2748e434bf8a49e03e88,,,,,A,,,,,,,,,,,,,,,2,0,0.8205,0,65,65,65,1,1,OLD,OLD,,,,,,,,
,,,,,,,,,,,,,,,,TestWords/KO_SU_FAI.wav,,60d754d900f33c946d172323,2021-07-11_18h17.49.526,Agingstudy_mst,2020.2.10,MacIntel,60,60e8550594adb1982c6cb1b5,60eb2748e434bf8a49e03e88,,,,,A,,,,,,,,,,,,,,,2,0,1.2165,0,66,66,66,1,1,OLD,OLD,,,,,,,,
,,,,,,,,,,,,,,,,TestWords/DAY_MO_PU.wav,,60d754d900f33c946d172323,2021-07-11_18h17.49.526,Agingstudy_mst,2020.2.10,MacIntel,60,60e8550594adb1982c6cb1b5,60eb2748e434bf8a49e03e88,,,,,A,,,,,,,,,,,,,,,2,1,2.8021,0,67,67,67,1,2,NEW,SIMILAR,,,,,,,,
,,,,,,,,,,,,,,,,TestWords/RAY_PA_TI.wav,,60d754d900f33c946d172323,2021-07-11_18h17.49.526,Agingstudy_mst,2020.2.10,MacIntel,60,60e8550594adb1982c6cb1b5,60eb2748e434bf8a49e03e88,,,,,A,,,,,,,,,,,,,,,1,1,0.3662,0,68,68,68,1,1,OLD,OLD,,,,,,,,
,,,,,,,,,,,,,,,,TestWords/GA_MU_ZI.wav,,60d754d900f33c946d172323,2021-07-11_18h17.49.526,Agingstudy_mst,2020.2.10,MacIntel,60,60e8550594adb1982c6cb1b5,60eb2748e434bf8a49e03e88,,,,,A,,,,,,,,,,,,,,,2,0,0.6561,0,69,69,69,1,1,OLD,OLD,,,,,,,,
,,,,,,,,,,,,,,,,TestWords/BA_LI_KAY.wav,,60d754d900f33c946d172323,2021-07-11_18h17.49.526,Agingstudy_mst,2020.2.10,MacIntel,60,60e8550594adb1982c6cb1b5,60eb2748e434bf8a49e03e88,,,,,A,,,,,,,,,,,,,,,2,1,0.5725,0,70,70,70,1,2,NEW,SIMILAR,,,,,,,,
,,,,,,,,,,,,,,,,TestWords/DAI_RU_CHI.wav,,60d754d900f33c946d172323,2021-07-11_18h17.49.526,Agingstudy_mst,2020.2.10,MacIntel,60,60e8550594adb1982c6cb1b5,60eb2748e434bf8a49e03e88,,,,,A,,,,,,,,,,,,,,,2,0,0.7864,0,71,71,71,1,1,OLD,OLD,,,,,,,,
,,,,,,,,,,,,,,,,TestWords/LU_HAI_BO.wav,,60d754d900f33c946d172323,2021-07-11_18h17.49.526,Agingstudy_mst,2020.2.10,MacIntel,60,60e8550594adb1982c6cb1b5,60eb2748e434bf8a49e03e88,,,,,A,,,,,,,,,,,,,,,2,1,1.1432,0,72,72,72,1,2,NEW,NEW,,,,,,,,
,,,,,,,,,,,,,,,,TestWords/RAY_PA_TI.wav,,60d754d900f33c946d172323,2021-07-11_18h17.49.526,Agingstudy_mst,2020.2.10,MacIntel,60,60e8550594adb1982c6cb1b5,60eb2748e434bf8a49e03e88,,,,,A,,,,,,,,,,,,,,,1,1,0.1182,0,73,73,73,1,1,OLD,OLD,,,,,,,,
,,,,,,,,,,,,,,,,TestWords/GA_MU_ZI.wav,,60d754d900f33c946d172323,2021-07-11_18h17.49.526,Agingstudy_mst,2020.2.10,MacIntel,60,60e8550594adb1982c6cb1b5,60eb2748e434bf8a49e03e88,,,,,A,,,,,,,,,,,,,,,2,0,0.1896,0,74,74,74,1,1,OLD,OLD,,,,,,,,
,,,,,,,,,,,,,,,,TestWords/MO_DAY_PU.wav,,60d754d900f33c946d172323,2021-07-11_18h17.49.526,Agingstudy_mst,2020.2.10,MacIntel,60,60e8550594adb1982c6cb1b5,60eb2748e434bf8a49e03e88,,,,,A,,,,,,,,,,,,,,,2,1,0.6265,0,75,75,75,1,2,NEW,SIMILAR,,,,,,,,
,,,,,,,,,,,,,,,,TestWords/DAI_RU_CHI.wav,,60d754d900f33c946d172323,2021-07-11_18h17.49.526,Agingstudy_mst,2020.2.10,MacIntel,60,60e8550594adb1982c6cb1b5,60eb2748e434bf8a49e03e88,,,,,A,,,,,,,,,,,,,,,1,1,0.2569,0,76,76,76,1,1,OLD,OLD,,,,,,,,
,,,,,,,,,,,,,,,,TestWords/ZO_FU_RAI.wav,,60d754d900f33c946d172323,2021-07-11_18h17.49.526,Agingstudy_mst,2020.2.10,MacIntel,60,60e8550594adb1982c6cb1b5,60eb2748e434bf8a49e03e88,,,,,A,,,,,,,,,,,,,,,2,1,0.3842,0,77,77,77,1,2,NEW,NEW,,,,,,,,
,,,,,,,,,,,,,,,,TestWords/NO_WA_BAY.wav,,60d754d900f33c946d172323,2021-07-11_18h17.49.526,Agingstudy_mst,2020.2.10,MacIntel,60,60e8550594adb1982c6cb1b5,60eb2748e434bf8a49e03e88,,,,,A,,,,,,,,,,,,,,,2,1,0.5929,0,78,78,78,1,2,NEW,NEW,,,,,,,,
,,,,,,,,,,,,,,,,TestWords/GA_MU_ZI.wav,,60d754d900f33c946d172323,2021-07-11_18h17.49.526,Agingstudy_mst,2020.2.10,MacIntel,60,60e8550594adb1982c6cb1b5,60eb2748e434bf8a49e03e88,,,,,A,,,,,,,,,,,,,,,2,0,0.4582,0,79,79,79,1,1,OLD,OLD,,,,,,,,
,,,,,,,,,,,,,,,,TestWords/DAI_RU_CHI.wav,,60d754d900f33c946d172323,2021-07-11_18h17.49.526,Agingstudy_mst,2020.2.10,MacIntel,60,60e8550594adb1982c6cb1b5,60eb2748e434bf8a49e03e88,,,,,A,,,,,,,,,,,,,,,2,0,2.3101,0,80,80,80,1,1,OLD,OLD,,,,,,,,
,,,,,,,,,,,,,,,,TestWords/PU_DAY_MO.wav,,60d754d900f33c946d172323,2021-07-11_18h17.49.526,Agingstudy_mst,2020.2.10,MacIntel,60,60e8550594adb1982c6cb1b5,60eb2748e434bf8a49e03e88,,,,,A,,,,,,,,,,,,,,,2,1,0.9851,0,81,81,81,1,2,NEW,SIMILAR,,,,,,,,
,,,,,,,,,,,,,,,,TestWords/RAI_ZO_FU.wav,,60d754d900f33c946d172323,2021-07-11_18h17.49.526,Agingstudy_mst,2020.2.10,MacIntel,60,60e8550594adb1982c6cb1b5,60eb2748e434bf8a49e03e88,,,,,A,,,,,,,,,,,,,,,2,1,0.4562,0,82,82,82,1,2,NEW,SIMILAR,,,,,,,,
,,,,,,,,,,,,,,,,TestWords/GA_MU_ZI.wav,,60d754d900f33c946d172323,2021-07-11_18h17.49.526,Agingstudy_mst,2020.2.10,MacIntel,60,60e8550594adb1982c6cb1b5,60eb2748e434bf8a49e03e88,,,,,A,,,,,,,,,,,,,,,1,1,0.6586,0,83,83,83,1,1,OLD,OLD,,,,,,,,
,,,,,,,,,,,,,,,,TestWords/PAI_LU_WA.wav,,60d754d900f33c946d172323,2021-07-11_18h17.49.526,Agingstudy_mst,2020.2.10,MacIntel,60,60e8550594adb1982c6cb1b5,60eb2748e434bf8a49e03e88,,,,,A,,,,,,,,,,,,,,,1,0,0.2918,0,84,84,84,1,2,NEW,NEW,,,,,,,,
,,,,,,,,,,,,,,,,TestWords/PU_MO_DAY.wav,,60d754d900f33c946d172323,2021-07-11_18h17.49.526,Agingstudy_mst,2020.2.10,MacIntel,60,60e8550594adb1982c6cb1b5,60eb2748e434bf8a49e03e88,,,,,A,,,,,,,,,,,,,,,2,1,0.6212,0,85,85,85,1,2,NEW,SIMILAR,,,,,,,,
,,,,,,,,,,,,,,,,TestWords/DAI_RU_CHI.wav,,60d754d900f33c946d172323,2021-07-11_18h17.49.526,Agingstudy_mst,2020.2.10,MacIntel,60,60e8550594adb1982c6cb1b5,60eb2748e434bf8a49e03e88,,,,,A,,,,,,,,,,,,,,,1,1,0.3873,0,86,86,86,1,1,OLD,OLD,,,,,,,,
,,,,,,,,,,,,,,,,TestWords/ZO_RAI_FU.wav,,60d754d900f33c946d172323,2021-07-11_18h17.49.526,Agingstudy_mst,2020.2.10,MacIntel,60,60e8550594adb1982c6cb1b5,60eb2748e434bf8a49e03e88,,,,,A,,,,,,,,,,,,,,,2,1,0.6242,0,87,87,87,1,2,NEW,SIMILAR,,,,,,,,
,,,,,,,,,,,,,,,,TestWords/FI_GU_CHA.wav,,60d754d900f33c946d172323,2021-07-11_18h17.49.526,Agingstudy_mst,2020.2.10,MacIntel,60,60e8550594adb1982c6cb1b5,60eb2748e434bf8a49e03e88,,,,,A,,,,,,,,,,,,,,,2,1,0.1584,0,88,88,88,1,2,NEW,NEW,,,,,,,,
,,,,,,,,,,,,,,,,TestWords/GA_MU_ZI.wav,,60d754d900f33c946d172323,2021-07-11_18h17.49.526,Agingstudy_mst,2020.2.10,MacIntel,60,60e8550594adb1982c6cb1b5,60eb2748e434bf8a49e03e88,,,,,A,,,,,,,,,,,,,,,1,1,0.3672,0,89,89,89,1,1,OLD,OLD,,,,,,,,
,,,,,,,,,,,,,,,,TestWords/DAI_RU_CHI.wav,,60d754d900f33c946d172323,2021-07-11_18h17.49.526,Agingstudy_mst,2020.2.10,MacIntel,60,60e8550594adb1982c6cb1b5,60eb2748e434bf8a49e03e88,,,,,A,,,,,,,,,,,,,,,1,1,0.2069,0,90,90,90,1,1,OLD,OLD,,,,,,,,
,,,,,,,,,,,,,,,,TestWords/FU_RAI_ZO.wav,,60d754d900f33c946d172323,2021-07-11_18h17.49.526,Agingstudy_mst,2020.2.10,MacIntel,60,60e8550594adb1982c6cb1b5,60eb2748e434bf8a49e03e88,,,,,A,,,,,,,,,,,,,,,2,1,0.5177,0,91,91,91,1,2,NEW,SIMILAR,,,,,,,,
,,,,,,,,,,,,,,,,TestWords/GU_CHAI_PI.wav,,60d754d900f33c946d172323,2021-07-11_18h17.49.526,Agingstudy_mst,2020.2.10,MacIntel,60,60e8550594adb1982c6cb1b5,60eb2748e434bf8a49e03e88,,,,,A,,,,,,,,,,,,,,,2,1,0.7342,0,92,92,92,1,2,NEW,NEW,,,,,,,,
,,,,,,,,,,,,,,,,TestWords/GA_MU_ZI.wav,,60d754d900f33c946d172323,2021-07-11_18h17.49.526,Agingstudy_mst,2020.2.10,MacIntel,60,60e8550594adb1982c6cb1b5,60eb2748e434bf8a49e03e88,,,,,A,,,,,,,,,,,,,,,2,0,0.2581,0,93,93,93,1,1,OLD,OLD,,,,,,,,
,,,,,,,,,,,,,,,,TestWords/DAI_RU_CHI.wav,,60d754d900f33c946d172323,2021-07-11_18h17.49.526,Agingstudy_mst,2020.2.10,MacIntel,60,60e8550594adb1982c6cb1b5,60eb2748e434bf8a49e03e88,,,,,A,,,,,,,,,,,,,,,1,1,0.3369,0,94,94,94,1,1,OLD,OLD,,,,,,,,
,,,,,,,,,,,,,,,,TestWords/FU_ZO_RAI.wav,,60d754d900f33c946d172323,2021-07-11_18h17.49.526,Agingstudy_mst,2020.2.10,MacIntel,60,60e8550594adb1982c6cb1b5,60eb2748e434bf8a49e03e88,,,,,A,,,,,,,,,,,,,,,2,1,0.2227,0,95,95,95,1,2,NEW,SIMILAR,,,,,,,,
,,,,,,,,,,,,,,,,TestWords/VAI_HO_LA.wav,,60d754d900f33c946d172323,2021-07-11_18h17.49.526,Agingstudy_mst,2020.2.10,MacIntel,60,60e8550594adb1982c6cb1b5,60eb2748e434bf8a49e03e88,,,,,A,,,,,,,,,,,,,,,2,1,0.2905,0,96,96,96,1,2,NEW,NEW,,,,,,,,
,,,,,,,,,,,,,,,,TestWords/DAI_RU_CHI.wav,,60d754d900f33c946d172323,2021-07-11_18h17.49.526,Agingstudy_mst,2020.2.10,MacIntel,60,60e8550594adb1982c6cb1b5,60eb2748e434bf8a49e03e88,,,,,A,,,,,,,,,,,,,,,1,1,0.0758,0,97,97,97,1,1,OLD,OLD,,,,,,,,
,,,,,,,,,,,,,,,,TestWords/LA_ZAY_CHAI.wav,,60d754d900f33c946d172323,2021-07-11_18h17.49.526,Agingstudy_mst,2020.2.10,MacIntel,60,60e8550594adb1982c6cb1b5,60eb2748e434bf8a49e03e88,,,,,A,,,,,,,,,,,,,,,2,1,0.5373,0,98,98,98,1,2,NEW,NEW,,,,,,,,
,,,,,,,,,,,,,,,,TestWords/RAI_FU_ZO.wav,,60d754d900f33c946d172323,2021-07-11_18h17.49.526,Agingstudy_mst,2020.2.10,MacIntel,60,60e8550594adb1982c6cb1b5,60eb2748e434bf8a49e03e88,,,,,A,,,,,,,,,,,,,,,2,1,0.4862,0,99,99,99,1,2,NEW,SIMILAR,,,,,,,,
,,,,,,,,,,,,,,,,,,60d754d900f33c946d172323,2021-07-11_18h17.49.526,Agingstudy_mst,2020.2.10,MacIntel,60,60e8550594adb1982c6cb1b5,60eb2748e434bf8a49e03e88,,,,,,,,,,,,,,,,,,,,,,,,,,,,,,,0,0,0,0,1,,,
,,,,,,,,,,,,,,,,,,60d754d900f33c946d172323,2021-07-11_18h17.49.526,Agingstudy_mst,2020.2.10,MacIntel,60,60e8550594adb1982c6cb1b5,60eb2748e434bf8a49e03e88,,,,,,,,,,,,,,,,,,,,,,,,,,,,,,,,,,,,return,10.7145,
