Welcome0Continue.keys,Welcome0Continue.rt,SoundCheckBegin.keys,SoundCheckBegin.rt,SoundCheckEndKey.keys,SoundCheckEndKey.rt,HeadphoneContinueKey.keys,HeadphoneContinueKey.rt,CheckResp.keys,CheckResp.corr,CheckResp.rt,HeadphoneLoop.thisRepN,HeadphoneLoop.thisTrialN,HeadphoneLoop.thisN,HeadphoneLoop.thisIndex,HeadphoneLoop.ran,File,Correct,participant,date,expName,psychopyVersion,OS,frameRate,STUDY_ID,SESSION_ID,ContinueKey8.keys,ContinueKey8.rt,MSTWelcomeContKey.keys,MSTWelcomeContKey.rt,Condition,MSTTrainIntroKey.keys,MSTTrainIntroKey.rt,MSTTrainKeys.keys,MSTTrainKeys.corr,MSTTrainKeys.rt,MSTTrainLoop.thisRepN,MSTTrainLoop.thisTrialN,MSTTrainLoop.thisN,MSTTrainLoop.thisIndex,MSTTrainLoop.ran,SoundFile,Type,MSTTestBeginKey.keys,MSTTestBeginKey.rt,MST_resp.keys,MST_resp.corr,MST_resp.rt,MSTPlayLoop.thisRepN,MSTPlayLoop.thisTrialN,MSTPlayLoop.thisN,MSTPlayLoop.thisIndex,MSTPlayLoop.ran,WordCorrect,Correct_type,WordType,MSTLoop.thisRepN,MSTLoop.thisTrialN,MSTLoop.thisN,MSTLoop.thisIndex,MSTLoop.ran,EndAllKey.keys,EndAllKey.rt,FeedbackResp.text
space,47.8497,space,4.4437,space,7.2324,space,7.3517,3,1,0.778,0,0,0,4,1,Headphone/t3_1.wav,3,60de3b24940c209d729e32a5,2021-07-15_21h44.54.939,Agingstudy_mst,2020.2.10,Win32,60,60e8550594adb1982c6cb1b5,60f09dcb1529737708cd9610,,,,,,,,,,,,,,,,,,,,,,,,,,,,,,,,,,,,,,
,,,,,,,,3,1,0.5017,0,1,1,5,1,Headphone/t3_2.wav,3,60de3b24940c209d729e32a5,2021-07-15_21h44.54.939,Agingstudy_mst,2020.2.10,Win32,60,60e8550594adb1982c6cb1b5,60f09dcb1529737708cd9610,,,,,,,,,,,,,,,,,,,,,,,,,,,,,,,,,,,,,,
,,,,,,,,2,1,0.5662,0,2,2,2,1,Headphone/t2_1.wav,2,60de3b24940c209d729e32a5,2021-07-15_21h44.54.939,Agingstudy_mst,2020.2.10,Win32,60,60e8550594adb1982c6cb1b5,60f09dcb1529737708cd9610,,,,,,,,,,,,,,,,,,,,,,,,,,,,,,,,,,,,,,
,,,,,,,,2,1,0.3921,0,3,3,3,1,Headphone/t2_2.wav,2,60de3b24940c209d729e32a5,2021-07-15_21h44.54.939,Agingstudy_mst,2020.2.10,Win32,60,60e8550594adb1982c6cb1b5,60f09dcb1529737708cd9610,,,,,,,,,,,,,,,,,,,,,,,,,,,,,,,,,,,,,,
,,,,,,,,1,1,0.489,0,4,4,1,1,Headphone/t1_2.wav,1,60de3b24940c209d729e32a5,2021-07-15_21h44.54.939,Agingstudy_mst,2020.2.10,Win32,60,60e8550594adb1982c6cb1b5,60f09dcb1529737708cd9610,,,,,,,,,,,,,,,,,,,,,,,,,,,,,,,,,,,,,,
,,,,,,,,1,1,0.4002,0,5,5,0,1,Headphone/t1_1.wav,1,60de3b24940c209d729e32a5,2021-07-15_21h44.54.939,Agingstudy_mst,2020.2.10,Win32,60,60e8550594adb1982c6cb1b5,60f09dcb1529737708cd9610,,,,,,,,,,,,,,,,,,,,,,,,,,,,,,,,,,,,,,
,,,,,,,,,,,,,,,,,2,60de3b24940c209d729e32a5,2021-07-15_21h44.54.939,Agingstudy_mst,2020.2.10,Win32,60,60e8550594adb1982c6cb1b5,60f09dcb1529737708cd9610,space,30.5577,space,7.2404,1,space,4.4188,2,1,12.349,0,0,0,0,1,Training/FO_YI_LAY.wav,NEW,,,,,,,,,,,,,,,,,,,,,
,,,,,,,,,,,,,,,,,1,60de3b24940c209d729e32a5,2021-07-15_21h44.54.939,Agingstudy_mst,2020.2.10,Win32,60,60e8550594adb1982c6cb1b5,60f09dcb1529737708cd9610,,,,,,,,1,1,4.652,0,1,1,1,1,Training/FO_YI_LAY.wav,OLD,,,,,,,,,,,,,,,,,,,,,
,,,,,,,,,,,,,,,,,2,60de3b24940c209d729e32a5,2021-07-15_21h44.54.939,Agingstudy_mst,2020.2.10,Win32,60,60e8550594adb1982c6cb1b5,60f09dcb1529737708cd9610,,,,,,,,2,1,2.9713,0,2,2,2,1,Training/YO_BU_JAY.wav,NEW,,,,,,,,,,,,,,,,,,,,,
,,,,,,,,,,,,,,,,,2,60de3b24940c209d729e32a5,2021-07-15_21h44.54.939,Agingstudy_mst,2020.2.10,Win32,60,60e8550594adb1982c6cb1b5,60f09dcb1529737708cd9610,,,,,,,,2,1,3.0261,0,3,3,3,1,Training/JAY_YO_BU.wav,SIMILAR,,,,,,,,,,,,,,,,,,,,,
,,,,,,,,,,,,,,,,,1,60de3b24940c209d729e32a5,2021-07-15_21h44.54.939,Agingstudy_mst,2020.2.10,Win32,60,60e8550594adb1982c6cb1b5,60f09dcb1529737708cd9610,,,,,,,,1,1,1.3353,0,4,4,4,1,Training/FO_YI_LAY.wav,OLD,,,,,,,,,,,,,,,,,,,,,
,,,,,,,,,,,,,,,,TestWords/CHU_LA_PAY.wav,,60de3b24940c209d729e32a5,2021-07-15_21h44.54.939,Agingstudy_mst,2020.2.10,Win32,60,60e8550594adb1982c6cb1b5,60f09dcb1529737708cd9610,,,,,D,,,,,,,,,,,,,space,10.2196,2,1,3.2873,0,0,0,0,1,2,NEW,NEW,,,,,,,,
,,,,,,,,,,,,,,,,TestWords/FI_GU_CHA.wav,,60de3b24940c209d729e32a5,2021-07-15_21h44.54.939,Agingstudy_mst,2020.2.10,Win32,60,60e8550594adb1982c6cb1b5,60f09dcb1529737708cd9610,,,,,D,,,,,,,,,,,,,,,2,1,3.482,0,1,1,1,1,2,NEW,NEW,,,,,,,,
,,,,,,,,,,,,,,,,TestWords/RAI_ZO_FU.wav,,60de3b24940c209d729e32a5,2021-07-15_21h44.54.939,Agingstudy_mst,2020.2.10,Win32,60,60e8550594adb1982c6cb1b5,60f09dcb1529737708cd9610,,,,,D,,,,,,,,,,,,,,,2,1,1.0084,0,2,2,2,1,2,NEW,NEW,,,,,,,,
,,,,,,,,,,,,,,,,TestWords/DAI_RU_CHI.wav,,60de3b24940c209d729e32a5,2021-07-15_21h44.54.939,Agingstudy_mst,2020.2.10,Win32,60,60e8550594adb1982c6cb1b5,60f09dcb1529737708cd9610,,,,,D,,,,,,,,,,,,,,,2,1,1.2158,0,3,3,3,1,2,NEW,NEW,,,,,,,,
,,,,,,,,,,,,,,,,TestWords/GA_MU_ZI.wav,,60de3b24940c209d729e32a5,2021-07-15_21h44.54.939,Agingstudy_mst,2020.2.10,Win32,60,60e8550594adb1982c6cb1b5,60f09dcb1529737708cd9610,,,,,D,,,,,,,,,,,,,,,2,1,0.7685,0,4,4,4,1,2,NEW,NEW,,,,,,,,
,,,,,,,,,,,,,,,,TestWords/DA_CHU_VAI.wav,,60de3b24940c209d729e32a5,2021-07-15_21h44.54.939,Agingstudy_mst,2020.2.10,Win32,60,60e8550594adb1982c6cb1b5,60f09dcb1529737708cd9610,,,,,D,,,,,,,,,,,,,,,2,1,0.7276,0,5,5,5,1,2,NEW,NEW,,,,,,,,
,,,,,,,,,,,,,,,,TestWords/ZO_RAI_FU.wav,,60de3b24940c209d729e32a5,2021-07-15_21h44.54.939,Agingstudy_mst,2020.2.10,Win32,60,60e8550594adb1982c6cb1b5,60f09dcb1529737708cd9610,,,,,D,,,,,,,,,,,,,,,2,1,1.1836,0,6,6,6,1,2,NEW,SIMILAR,,,,,,,,
,,,,,,,,,,,,,,,,TestWords/BA_KAY_LI.wav,,60de3b24940c209d729e32a5,2021-07-15_21h44.54.939,Agingstudy_mst,2020.2.10,Win32,60,60e8550594adb1982c6cb1b5,60f09dcb1529737708cd9610,,,,,D,,,,,,,,,,,,,,,1,0,3.0115,0,7,7,7,1,2,NEW,NEW,,,,,,,,
,,,,,,,,,,,,,,,,TestWords/VAI_HO_LA.wav,,60de3b24940c209d729e32a5,2021-07-15_21h44.54.939,Agingstudy_mst,2020.2.10,Win32,60,60e8550594adb1982c6cb1b5,60f09dcb1529737708cd9610,,,,,D,,,,,,,,,,,,,,,1,0,0.8697,0,8,8,8,1,2,NEW,NEW,,,,,,,,
,,,,,,,,,,,,,,,,TestWords/DAI_RU_CHI.wav,,60de3b24940c209d729e32a5,2021-07-15_21h44.54.939,Agingstudy_mst,2020.2.10,Win32,60,60e8550594adb1982c6cb1b5,60f09dcb1529737708cd9610,,,,,D,,,,,,,,,,,,,,,1,1,0.5053,0,9,9,9,1,1,OLD,OLD,,,,,,,,
,,,,,,,,,,,,,,,,TestWords/RAY_PA_TI.wav,,60de3b24940c209d729e32a5,2021-07-15_21h44.54.939,Agingstudy_mst,2020.2.10,Win32,60,60e8550594adb1982c6cb1b5,60f09dcb1529737708cd9610,,,,,D,,,,,,,,,,,,,,,2,1,1.0325,0,10,10,10,1,2,NEW,NEW,,,,,,,,
,,,,,,,,,,,,,,,,TestWords/NO_WA_BAY.wav,,60de3b24940c209d729e32a5,2021-07-15_21h44.54.939,Agingstudy_mst,2020.2.10,Win32,60,60e8550594adb1982c6cb1b5,60f09dcb1529737708cd9610,,,,,D,,,,,,,,,,,,,,,2,1,0.4754,0,11,11,11,1,2,NEW,NEW,,,,,,,,
,,,,,,,,,,,,,,,,TestWords/GA_MU_ZI.wav,,60de3b24940c209d729e32a5,2021-07-15_21h44.54.939,Agingstudy_mst,2020.2.10,Win32,60,60e8550594adb1982c6cb1b5,60f09dcb1529737708cd9610,,,,,D,,,,,,,,,,,,,,,2,0,3.5033,0,12,12,12,1,1,OLD,OLD,,,,,,,,
,,,,,,,,,,,,,,,,TestWords/WAI_VU_NA.wav,,60de3b24940c209d729e32a5,2021-07-15_21h44.54.939,Agingstudy_mst,2020.2.10,Win32,60,60e8550594adb1982c6cb1b5,60f09dcb1529737708cd9610,,,,,D,,,,,,,,,,,,,,,1,0,0.6846,0,13,13,13,1,2,NEW,NEW,,,,,,,,
,,,,,,,,,,,,,,,,TestWords/KAY_LI_BA.wav,,60de3b24940c209d729e32a5,2021-07-15_21h44.54.939,Agingstudy_mst,2020.2.10,Win32,60,60e8550594adb1982c6cb1b5,60f09dcb1529737708cd9610,,,,,D,,,,,,,,,,,,,,,1,0,0.5534,0,14,14,14,1,2,NEW,SIMILAR,,,,,,,,
,,,,,,,,,,,,,,,,TestWords/FU_RAI_ZO.wav,,60de3b24940c209d729e32a5,2021-07-15_21h44.54.939,Agingstudy_mst,2020.2.10,Win32,60,60e8550594adb1982c6cb1b5,60f09dcb1529737708cd9610,,,,,D,,,,,,,,,,,,,,,1,0,3.2416,0,15,15,15,1,2,NEW,SIMILAR,,,,,,,,
,,,,,,,,,,,,,,,,TestWords/KAI_LAY_TA.wav,,60de3b24940c209d729e32a5,2021-07-15_21h44.54.939,Agingstudy_mst,2020.2.10,Win32,60,60e8550594adb1982c6cb1b5,60f09dcb1529737708cd9610,,,,,D,,,,,,,,,,,,,,,2,1,1.4511,0,16,16,16,1,2,NEW,NEW,,,,,,,,
,,,,,,,,,,,,,,,,TestWords/RAY_PA_TI.wav,,60de3b24940c209d729e32a5,2021-07-15_21h44.54.939,Agingstudy_mst,2020.2.10,Win32,60,60e8550594adb1982c6cb1b5,60f09dcb1529737708cd9610,,,,,D,,,,,,,,,,,,,,,1,1,0.8113,0,17,17,17,1,1,OLD,OLD,,,,,,,,
,,,,,,,,,,,,,,,,TestWords/DAI_RU_CHI.wav,,60de3b24940c209d729e32a5,2021-07-15_21h44.54.939,Agingstudy_mst,2020.2.10,Win32,60,60e8550594adb1982c6cb1b5,60f09dcb1529737708cd9610,,,,,D,,,,,,,,,,,,,,,2,0,1.9253,0,18,18,18,1,1,OLD,OLD,,,,,,,,
,,,,,,,,,,,,,,,,TestWords/WAI_NA_VU.wav,,60de3b24940c209d729e32a5,2021-07-15_21h44.54.939,Agingstudy_mst,2020.2.10,Win32,60,60e8550594adb1982c6cb1b5,60f09dcb1529737708cd9610,,,,,D,,,,,,,,,,,,,,,1,0,0.5932,0,19,19,19,1,2,NEW,SIMILAR,,,,,,,,
,,,,,,,,,,,,,,,,TestWords/GA_MU_ZI.wav,,60de3b24940c209d729e32a5,2021-07-15_21h44.54.939,Agingstudy_mst,2020.2.10,Win32,60,60e8550594adb1982c6cb1b5,60f09dcb1529737708cd9610,,,,,D,,,,,,,,,,,,,,,1,1,1.1365,0,20,20,20,1,1,OLD,OLD,,,,,,,,
,,,,,,,,,,,,,,,,TestWords/KAY_BA_LI.wav,,60de3b24940c209d729e32a5,2021-07-15_21h44.54.939,Agingstudy_mst,2020.2.10,Win32,60,60e8550594adb1982c6cb1b5,60f09dcb1529737708cd9610,,,,,D,,,,,,,,,,,,,,,1,0,0.4393,0,21,21,21,1,2,NEW,SIMILAR,,,,,,,,
,,,,,,,,,,,,,,,,TestWords/KAI_LAY_TA.wav,,60de3b24940c209d729e32a5,2021-07-15_21h44.54.939,Agingstudy_mst,2020.2.10,Win32,60,60e8550594adb1982c6cb1b5,60f09dcb1529737708cd9610,,,,,D,,,,,,,,,,,,,,,1,1,1.1824,0,22,22,22,1,1,OLD,OLD,,,,,,,,
,,,,,,,,,,,,,,,,TestWords/FU_ZO_RAI.wav,,60de3b24940c209d729e32a5,2021-07-15_21h44.54.939,Agingstudy_mst,2020.2.10,Win32,60,60e8550594adb1982c6cb1b5,60f09dcb1529737708cd9610,,,,,D,,,,,,,,,,,,,,,2,1,4.1569,0,23,23,23,1,2,NEW,SIMILAR,,,,,,,,
,,,,,,,,,,,,,,,,TestWords/RAY_PA_TI.wav,,60de3b24940c209d729e32a5,2021-07-15_21h44.54.939,Agingstudy_mst,2020.2.10,Win32,60,60e8550594adb1982c6cb1b5,60f09dcb1529737708cd9610,,,,,D,,,,,,,,,,,,,,,1,1,0.267,0,24,24,24,1,1,OLD,OLD,,,,,,,,
,,,,,,,,,,,,,,,,TestWords/DAI_RU_CHI.wav,,60de3b24940c209d729e32a5,2021-07-15_21h44.54.939,Agingstudy_mst,2020.2.10,Win32,60,60e8550594adb1982c6cb1b5,60f09dcb1529737708cd9610,,,,,D,,,,,,,,,,,,,,,1,1,0.7703,0,25,25,25,1,1,OLD,OLD,,,,,,,,
,,,,,,,,,,,,,,,,TestWords/VU_NA_WAI.wav,,60de3b24940c209d729e32a5,2021-07-15_21h44.54.939,Agingstudy_mst,2020.2.10,Win32,60,60e8550594adb1982c6cb1b5,60f09dcb1529737708cd9610,,,,,D,,,,,,,,,,,,,,,2,1,1.0006,0,26,26,26,1,2,NEW,SIMILAR,,,,,,,,
,,,,,,,,,,,,,,,,TestWords/RAI_FU_ZO.wav,,60de3b24940c209d729e32a5,2021-07-15_21h44.54.939,Agingstudy_mst,2020.2.10,Win32,60,60e8550594adb1982c6cb1b5,60f09dcb1529737708cd9610,,,,,D,,,,,,,,,,,,,,,1,0,0.5597,0,27,27,27,1,2,NEW,SIMILAR,,,,,,,,
,,,,,,,,,,,,,,,,TestWords/GA_MU_ZI.wav,,60de3b24940c209d729e32a5,2021-07-15_21h44.54.939,Agingstudy_mst,2020.2.10,Win32,60,60e8550594adb1982c6cb1b5,60f09dcb1529737708cd9610,,,,,D,,,,,,,,,,,,,,,2,0,0.6673,0,28,28,28,1,1,OLD,OLD,,,,,,,,
,,,,,,,,,,,,,,,,TestWords/LI_BA_KAY.wav,,60de3b24940c209d729e32a5,2021-07-15_21h44.54.939,Agingstudy_mst,2020.2.10,Win32,60,60e8550594adb1982c6cb1b5,60f09dcb1529737708cd9610,,,,,D,,,,,,,,,,,,,,,2,1,0.5374,0,29,29,29,1,2,NEW,SIMILAR,,,,,,,,
,,,,,,,,,,,,,,,,TestWords/KAI_LAY_TA.wav,,60de3b24940c209d729e32a5,2021-07-15_21h44.54.939,Agingstudy_mst,2020.2.10,Win32,60,60e8550594adb1982c6cb1b5,60f09dcb1529737708cd9610,,,,,D,,,,,,,,,,,,,,,1,1,0.3673,0,30,30,30,1,1,OLD,OLD,,,,,,,,
,,,,,,,,,,,,,,,,TestWords/RAY_PA_TI.wav,,60de3b24940c209d729e32a5,2021-07-15_21h44.54.939,Agingstudy_mst,2020.2.10,Win32,60,60e8550594adb1982c6cb1b5,60f09dcb1529737708cd9610,,,,,D,,,,,,,,,,,,,,,1,1,0.4683,0,31,31,31,1,1,OLD,OLD,,,,,,,,
,,,,,,,,,,,,,,,,TestWords/VU_WAI_NA.wav,,60de3b24940c209d729e32a5,2021-07-15_21h44.54.939,Agingstudy_mst,2020.2.10,Win32,60,60e8550594adb1982c6cb1b5,60f09dcb1529737708cd9610,,,,,D,,,,,,,,,,,,,,,2,1,0.6674,0,32,32,32,1,2,NEW,SIMILAR,,,,,,,,
,,,,,,,,,,,,,,,,TestWords/DAI_RU_CHI.wav,,60de3b24940c209d729e32a5,2021-07-15_21h44.54.939,Agingstudy_mst,2020.2.10,Win32,60,60e8550594adb1982c6cb1b5,60f09dcb1529737708cd9610,,,,,D,,,,,,,,,,,,,,,1,1,0.5838,0,33,33,33,1,1,OLD,OLD,,,,,,,,
,,,,,,,,,,,,,,,,TestWords/ZO_FU_RAI.wav,,60de3b24940c209d729e32a5,2021-07-15_21h44.54.939,Agingstudy_mst,2020.2.10,Win32,60,60e8550594adb1982c6cb1b5,60f09dcb1529737708cd9610,,,,,D,,,,,,,,,,,,,,,2,1,3.0782,0,34,34,34,1,2,NEW,SIMILAR,,,,,,,,
,,,,,,,,,,,,,,,,TestWords/BA_LI_KAY.wav,,60de3b24940c209d729e32a5,2021-07-15_21h44.54.939,Agingstudy_mst,2020.2.10,Win32,60,60e8550594adb1982c6cb1b5,60f09dcb1529737708cd9610,,,,,D,,,,,,,,,,,,,,,1,0,0.7502,0,35,35,35,1,2,NEW,SIMILAR,,,,,,,,
,,,,,,,,,,,,,,,,TestWords/KO_SU_FAI.wav,,60de3b24940c209d729e32a5,2021-07-15_21h44.54.939,Agingstudy_mst,2020.2.10,Win32,60,60e8550594adb1982c6cb1b5,60f09dcb1529737708cd9610,,,,,D,,,,,,,,,,,,,,,2,1,1.1236,0,36,36,36,1,2,NEW,NEW,,,,,,,,
,,,,,,,,,,,,,,,,TestWords/KAI_LAY_TA.wav,,60de3b24940c209d729e32a5,2021-07-15_21h44.54.939,Agingstudy_mst,2020.2.10,Win32,60,60e8550594adb1982c6cb1b5,60f09dcb1529737708cd9610,,,,,D,,,,,,,,,,,,,,,2,0,2.5825,0,37,37,37,1,1,OLD,OLD,,,,,,,,
,,,,,,,,,,,,,,,,TestWords/RAY_PA_TI.wav,,60de3b24940c209d729e32a5,2021-07-15_21h44.54.939,Agingstudy_mst,2020.2.10,Win32,60,60e8550594adb1982c6cb1b5,60f09dcb1529737708cd9610,,,,,D,,,,,,,,,,,,,,,1,1,0.3174,0,38,38,38,1,1,OLD,OLD,,,,,,,,
,,,,,,,,,,,,,,,,TestWords/GA_MU_ZI.wav,,60de3b24940c209d729e32a5,2021-07-15_21h44.54.939,Agingstudy_mst,2020.2.10,Win32,60,60e8550594adb1982c6cb1b5,60f09dcb1529737708cd9610,,,,,D,,,,,,,,,,,,,,,1,1,0.6107,0,39,39,39,1,1,OLD,OLD,,,,,,,,
,,,,,,,,,,,,,,,,TestWords/NA_VU_WAI.wav,,60de3b24940c209d729e32a5,2021-07-15_21h44.54.939,Agingstudy_mst,2020.2.10,Win32,60,60e8550594adb1982c6cb1b5,60f09dcb1529737708cd9610,,,,,D,,,,,,,,,,,,,,,2,1,2.3319,0,40,40,40,1,2,NEW,SIMILAR,,,,,,,,
,,,,,,,,,,,,,,,,TestWords/DAI_RU_CHI.wav,,60de3b24940c209d729e32a5,2021-07-15_21h44.54.939,Agingstudy_mst,2020.2.10,Win32,60,60e8550594adb1982c6cb1b5,60f09dcb1529737708cd9610,,,,,D,,,,,,,,,,,,,,,1,1,1.0016,0,41,41,41,1,1,OLD,OLD,,,,,,,,
,,,,,,,,,,,,,,,,TestWords/KO_SU_FAI.wav,,60de3b24940c209d729e32a5,2021-07-15_21h44.54.939,Agingstudy_mst,2020.2.10,Win32,60,60e8550594adb1982c6cb1b5,60f09dcb1529737708cd9610,,,,,D,,,,,,,,,,,,,,,1,1,0.3528,0,42,42,42,1,1,OLD,OLD,,,,,,,,
,,,,,,,,,,,,,,,,TestWords/NA_WAI_VU.wav,,60de3b24940c209d729e32a5,2021-07-15_21h44.54.939,Agingstudy_mst,2020.2.10,Win32,60,60e8550594adb1982c6cb1b5,60f09dcb1529737708cd9610,,,,,D,,,,,,,,,,,,,,,2,1,0.5793,0,43,43,43,1,2,NEW,SIMILAR,,,,,,,,
,,,,,,,,,,,,,,,,TestWords/KAI_LAY_TA.wav,,60de3b24940c209d729e32a5,2021-07-15_21h44.54.939,Agingstudy_mst,2020.2.10,Win32,60,60e8550594adb1982c6cb1b5,60f09dcb1529737708cd9610,,,,,D,,,,,,,,,,,,,,,1,1,1.444,0,44,44,44,1,1,OLD,OLD,,,,,,,,
,,,,,,,,,,,,,,,,TestWords/SI_VAI_CHU.wav,,60de3b24940c209d729e32a5,2021-07-15_21h44.54.939,Agingstudy_mst,2020.2.10,Win32,60,60e8550594adb1982c6cb1b5,60f09dcb1529737708cd9610,,,,,D,,,,,,,,,,,,,,,2,1,0.238,0,45,45,45,1,2,NEW,NEW,,,,,,,,
,,,,,,,,,,,,,,,,TestWords/RAY_PA_TI.wav,,60de3b24940c209d729e32a5,2021-07-15_21h44.54.939,Agingstudy_mst,2020.2.10,Win32,60,60e8550594adb1982c6cb1b5,60f09dcb1529737708cd9610,,,,,D,,,,,,,,,,,,,,,1,1,0.5763,0,46,46,46,1,1,OLD,OLD,,,,,,,,
,,,,,,,,,,,,,,,,TestWords/GA_MU_ZI.wav,,60de3b24940c209d729e32a5,2021-07-15_21h44.54.939,Agingstudy_mst,2020.2.10,Win32,60,60e8550594adb1982c6cb1b5,60f09dcb1529737708cd9610,,,,,D,,,,,,,,,,,,,,,1,1,0.5165,0,47,47,47,1,1,OLD,OLD,,,,,,,,
,,,,,,,,,,,,,,,,TestWords/LI_KAY_BA.wav,,60de3b24940c209d729e32a5,2021-07-15_21h44.54.939,Agingstudy_mst,2020.2.10,Win32,60,60e8550594adb1982c6cb1b5,60f09dcb1529737708cd9610,,,,,D,,,,,,,,,,,,,,,1,0,2.2044,0,48,48,48,1,2,NEW,SIMILAR,,,,,,,,
,,,,,,,,,,,,,,,,TestWords/KO_SU_FAI.wav,,60de3b24940c209d729e32a5,2021-07-15_21h44.54.939,Agingstudy_mst,2020.2.10,Win32,60,60e8550594adb1982c6cb1b5,60f09dcb1529737708cd9610,,,,,D,,,,,,,,,,,,,,,1,1,0.5411,0,49,49,49,1,1,OLD,OLD,,,,,,,,
,,,,,,,,,,,,,,,,TestWords/DAI_RU_CHI.wav,,60de3b24940c209d729e32a5,2021-07-15_21h44.54.939,Agingstudy_mst,2020.2.10,Win32,60,60e8550594adb1982c6cb1b5,60f09dcb1529737708cd9610,,,,,D,,,,,,,,,,,,,,,1,1,0.469,0,50,50,50,1,1,OLD,OLD,,,,,,,,
,,,,,,,,,,,,,,,,TestWords/DAY_PU_MO.wav,,60de3b24940c209d729e32a5,2021-07-15_21h44.54.939,Agingstudy_mst,2020.2.10,Win32,60,60e8550594adb1982c6cb1b5,60f09dcb1529737708cd9610,,,,,D,,,,,,,,,,,,,,,2,1,2.4024,0,51,51,51,1,2,NEW,NEW,,,,,,,,
,,,,,,,,,,,,,,,,TestWords/KAI_LAY_TA.wav,,60de3b24940c209d729e32a5,2021-07-15_21h44.54.939,Agingstudy_mst,2020.2.10,Win32,60,60e8550594adb1982c6cb1b5,60f09dcb1529737708cd9610,,,,,D,,,,,,,,,,,,,,,1,1,0.8697,0,52,52,52,1,1,OLD,OLD,,,,,,,,
,,,,,,,,,,,,,,,,TestWords/LU_HAI_BO.wav,,60de3b24940c209d729e32a5,2021-07-15_21h44.54.939,Agingstudy_mst,2020.2.10,Win32,60,60e8550594adb1982c6cb1b5,60f09dcb1529737708cd9610,,,,,D,,,,,,,,,,,,,,,2,1,0.3823,0,53,53,53,1,2,NEW,NEW,,,,,,,,
,,,,,,,,,,,,,,,,TestWords/RAY_PA_TI.wav,,60de3b24940c209d729e32a5,2021-07-15_21h44.54.939,Agingstudy_mst,2020.2.10,Win32,60,60e8550594adb1982c6cb1b5,60f09dcb1529737708cd9610,,,,,D,,,,,,,,,,,,,,,1,1,0.3081,0,54,54,54,1,1,OLD,OLD,,,,,,,,
,,,,,,,,,,,,,,,,TestWords/GA_MU_ZI.wav,,60de3b24940c209d729e32a5,2021-07-15_21h44.54.939,Agingstudy_mst,2020.2.10,Win32,60,60e8550594adb1982c6cb1b5,60f09dcb1529737708cd9610,,,,,D,,,,,,,,,,,,,,,2,0,2.5569,0,55,55,55,1,1,OLD,OLD,,,,,,,,
,,,,,,,,,,,,,,,,TestWords/KO_SU_FAI.wav,,60de3b24940c209d729e32a5,2021-07-15_21h44.54.939,Agingstudy_mst,2020.2.10,Win32,60,60e8550594adb1982c6cb1b5,60f09dcb1529737708cd9610,,,,,D,,,,,,,,,,,,,,,1,1,0.4835,0,56,56,56,1,1,OLD,OLD,,,,,,,,
,,,,,,,,,,,,,,,,TestWords/TAI_SA_GI.wav,,60de3b24940c209d729e32a5,2021-07-15_21h44.54.939,Agingstudy_mst,2020.2.10,Win32,60,60e8550594adb1982c6cb1b5,60f09dcb1529737708cd9610,,,,,D,,,,,,,,,,,,,,,2,1,0.6237,0,57,57,57,1,2,NEW,NEW,,,,,,,,
,,,,,,,,,,,,,,,,TestWords/DAY_MO_PU.wav,,60de3b24940c209d729e32a5,2021-07-15_21h44.54.939,Agingstudy_mst,2020.2.10,Win32,60,60e8550594adb1982c6cb1b5,60f09dcb1529737708cd9610,,,,,D,,,,,,,,,,,,,,,2,1,0.9501,0,58,58,58,1,2,NEW,SIMILAR,,,,,,,,
,,,,,,,,,,,,,,,,TestWords/DAI_RU_CHI.wav,,60de3b24940c209d729e32a5,2021-07-15_21h44.54.939,Agingstudy_mst,2020.2.10,Win32,60,60e8550594adb1982c6cb1b5,60f09dcb1529737708cd9610,,,,,D,,,,,,,,,,,,,,,1,1,0.8504,0,59,59,59,1,1,OLD,OLD,,,,,,,,
,,,,,,,,,,,,,,,,TestWords/KAI_LAY_TA.wav,,60de3b24940c209d729e32a5,2021-07-15_21h44.54.939,Agingstudy_mst,2020.2.10,Win32,60,60e8550594adb1982c6cb1b5,60f09dcb1529737708cd9610,,,,,D,,,,,,,,,,,,,,,1,1,0.8343,0,60,60,60,1,1,OLD,OLD,,,,,,,,
,,,,,,,,,,,,,,,,TestWords/LA_ZAY_CHAI.wav,,60de3b24940c209d729e32a5,2021-07-15_21h44.54.939,Agingstudy_mst,2020.2.10,Win32,60,60e8550594adb1982c6cb1b5,60f09dcb1529737708cd9610,,,,,D,,,,,,,,,,,,,,,2,1,1.1738,0,61,61,61,1,2,NEW,NEW,,,,,,,,
,,,,,,,,,,,,,,,,TestWords/RAY_PA_TI.wav,,60de3b24940c209d729e32a5,2021-07-15_21h44.54.939,Agingstudy_mst,2020.2.10,Win32,60,60e8550594adb1982c6cb1b5,60f09dcb1529737708cd9610,,,,,D,,,,,,,,,,,,,,,1,1,0.2391,0,62,62,62,1,1,OLD,OLD,,,,,,,,
,,,,,,,,,,,,,,,,TestWords/KO_SU_FAI.wav,,60de3b24940c209d729e32a5,2021-07-15_21h44.54.939,Agingstudy_mst,2020.2.10,Win32,60,60e8550594adb1982c6cb1b5,60f09dcb1529737708cd9610,,,,,D,,,,,,,,,,,,,,,1,1,0.8936,0,63,63,63,1,1,OLD,OLD,,,,,,,,
,,,,,,,,,,,,,,,,TestWords/GA_MU_ZI.wav,,60de3b24940c209d729e32a5,2021-07-15_21h44.54.939,Agingstudy_mst,2020.2.10,Win32,60,60e8550594adb1982c6cb1b5,60f09dcb1529737708cd9610,,,,,D,,,,,,,,,,,,,,,1,1,1.0157,0,64,64,64,1,1,OLD,OLD,,,,,,,,
,,,,,,,,,,,,,,,,TestWords/GI_TAI_SA.wav,,60de3b24940c209d729e32a5,2021-07-15_21h44.54.939,Agingstudy_mst,2020.2.10,Win32,60,60e8550594adb1982c6cb1b5,60f09dcb1529737708cd9610,,,,,D,,,,,,,,,,,,,,,2,1,0.8675,0,65,65,65,1,2,NEW,SIMILAR,,,,,,,,
,,,,,,,,,,,,,,,,TestWords/MO_DAY_PU.wav,,60de3b24940c209d729e32a5,2021-07-15_21h44.54.939,Agingstudy_mst,2020.2.10,Win32,60,60e8550594adb1982c6cb1b5,60f09dcb1529737708cd9610,,,,,D,,,,,,,,,,,,,,,2,1,3.0401,0,66,66,66,1,2,NEW,SIMILAR,,,,,,,,
,,,,,,,,,,,,,,,,TestWords/KAI_LAY_TA.wav,,60de3b24940c209d729e32a5,2021-07-15_21h44.54.939,Agingstudy_mst,2020.2.10,Win32,60,60e8550594adb1982c6cb1b5,60f09dcb1529737708cd9610,,,,,D,,,,,,,,,,,,,,,2,0,4.0131,0,67,67,67,1,1,OLD,OLD,,,,,,,,
,,,,,,,,,,,,,,,,TestWords/KO_SU_FAI.wav,,60de3b24940c209d729e32a5,2021-07-15_21h44.54.939,Agingstudy_mst,2020.2.10,Win32,60,60e8550594adb1982c6cb1b5,60f09dcb1529737708cd9610,,,,,D,,,,,,,,,,,,,,,1,1,1.9192,0,68,68,68,1,1,OLD,OLD,,,,,,,,
,,,,,,,,,,,,,,,,TestWords/RAY_PA_TI.wav,,60de3b24940c209d729e32a5,2021-07-15_21h44.54.939,Agingstudy_mst,2020.2.10,Win32,60,60e8550594adb1982c6cb1b5,60f09dcb1529737708cd9610,,,,,D,,,,,,,,,,,,,,,1,1,0.2889,0,69,69,69,1,1,OLD,OLD,,,,,,,,
,,,,,,,,,,,,,,,,TestWords/NU_CHAY_SO.wav,,60de3b24940c209d729e32a5,2021-07-15_21h44.54.939,Agingstudy_mst,2020.2.10,Win32,60,60e8550594adb1982c6cb1b5,60f09dcb1529737708cd9610,,,,,D,,,,,,,,,,,,,,,1,0,0.573,0,70,70,70,1,2,NEW,NEW,,,,,,,,
,,,,,,,,,,,,,,,,TestWords/GA_MU_ZI.wav,,60de3b24940c209d729e32a5,2021-07-15_21h44.54.939,Agingstudy_mst,2020.2.10,Win32,60,60e8550594adb1982c6cb1b5,60f09dcb1529737708cd9610,,,,,D,,,,,,,,,,,,,,,1,1,2.5342,0,71,71,71,1,1,OLD,OLD,,,,,,,,
,,,,,,,,,,,,,,,,TestWords/DAI_RU_CHI.wav,,60de3b24940c209d729e32a5,2021-07-15_21h44.54.939,Agingstudy_mst,2020.2.10,Win32,60,60e8550594adb1982c6cb1b5,60f09dcb1529737708cd9610,,,,,D,,,,,,,,,,,,,,,1,1,0.419,0,72,72,72,1,1,OLD,OLD,,,,,,,,
,,,,,,,,,,,,,,,,TestWords/SA_TAI_GI.wav,,60de3b24940c209d729e32a5,2021-07-15_21h44.54.939,Agingstudy_mst,2020.2.10,Win32,60,60e8550594adb1982c6cb1b5,60f09dcb1529737708cd9610,,,,,D,,,,,,,,,,,,,,,2,1,0.7175,0,73,73,73,1,2,NEW,SIMILAR,,,,,,,,
,,,,,,,,,,,,,,,,TestWords/PU_DAY_MO.wav,,60de3b24940c209d729e32a5,2021-07-15_21h44.54.939,Agingstudy_mst,2020.2.10,Win32,60,60e8550594adb1982c6cb1b5,60f09dcb1529737708cd9610,,,,,D,,,,,,,,,,,,,,,1,0,0.5835,0,74,74,74,1,2,NEW,SIMILAR,,,,,,,,
,,,,,,,,,,,,,,,,TestWords/KO_SU_FAI.wav,,60de3b24940c209d729e32a5,2021-07-15_21h44.54.939,Agingstudy_mst,2020.2.10,Win32,60,60e8550594adb1982c6cb1b5,60f09dcb1529737708cd9610,,,,,D,,,,,,,,,,,,,,,1,1,0.5176,0,75,75,75,1,1,OLD,OLD,,,,,,,,
,,,,,,,,,,,,,,,,TestWords/KAI_LAY_TA.wav,,60de3b24940c209d729e32a5,2021-07-15_21h44.54.939,Agingstudy_mst,2020.2.10,Win32,60,60e8550594adb1982c6cb1b5,60f09dcb1529737708cd9610,,,,,D,,,,,,,,,,,,,,,1,1,0.8337,0,76,76,76,1,1,OLD,OLD,,,,,,,,
,,,,,,,,,,,,,,,,TestWords/HA_SI_JAI.wav,,60de3b24940c209d729e32a5,2021-07-15_21h44.54.939,Agingstudy_mst,2020.2.10,Win32,60,60e8550594adb1982c6cb1b5,60f09dcb1529737708cd9610,,,,,D,,,,,,,,,,,,,,,2,1,1.7179,0,77,77,77,1,2,NEW,NEW,,,,,,,,
,,,,,,,,,,,,,,,,TestWords/RAY_PA_TI.wav,,60de3b24940c209d729e32a5,2021-07-15_21h44.54.939,Agingstudy_mst,2020.2.10,Win32,60,60e8550594adb1982c6cb1b5,60f09dcb1529737708cd9610,,,,,D,,,,,,,,,,,,,,,1,1,0.3847,0,78,78,78,1,1,OLD,OLD,,,,,,,,
,,,,,,,,,,,,,,,,TestWords/DAI_RU_CHI.wav,,60de3b24940c209d729e32a5,2021-07-15_21h44.54.939,Agingstudy_mst,2020.2.10,Win32,60,60e8550594adb1982c6cb1b5,60f09dcb1529737708cd9610,,,,,D,,,,,,,,,,,,,,,1,1,1.0326,0,79,79,79,1,1,OLD,OLD,,,,,,,,
,,,,,,,,,,,,,,,,TestWords/GA_MU_ZI.wav,,60de3b24940c209d729e32a5,2021-07-15_21h44.54.939,Agingstudy_mst,2020.2.10,Win32,60,60e8550594adb1982c6cb1b5,60f09dcb1529737708cd9610,,,,,D,,,,,,,,,,,,,,,1,1,0.6534,0,80,80,80,1,1,OLD,OLD,,,,,,,,
,,,,,,,,,,,,,,,,TestWords/SA_GI_TAI.wav,,60de3b24940c209d729e32a5,2021-07-15_21h44.54.939,Agingstudy_mst,2020.2.10,Win32,60,60e8550594adb1982c6cb1b5,60f09dcb1529737708cd9610,,,,,D,,,,,,,,,,,,,,,2,1,0.325,0,81,81,81,1,2,NEW,SIMILAR,,,,,,,,
,,,,,,,,,,,,,,,,TestWords/KO_SU_FAI.wav,,60de3b24940c209d729e32a5,2021-07-15_21h44.54.939,Agingstudy_mst,2020.2.10,Win32,60,60e8550594adb1982c6cb1b5,60f09dcb1529737708cd9610,,,,,D,,,,,,,,,,,,,,,1,1,1.1565,0,82,82,82,1,1,OLD,OLD,,,,,,,,
,,,,,,,,,,,,,,,,TestWords/KAI_LAY_TA.wav,,60de3b24940c209d729e32a5,2021-07-15_21h44.54.939,Agingstudy_mst,2020.2.10,Win32,60,60e8550594adb1982c6cb1b5,60f09dcb1529737708cd9610,,,,,D,,,,,,,,,,,,,,,1,1,4.1925,0,83,83,83,1,1,OLD,OLD,,,,,,,,
,,,,,,,,,,,,,,,,TestWords/PU_MO_DAY.wav,,60de3b24940c209d729e32a5,2021-07-15_21h44.54.939,Agingstudy_mst,2020.2.10,Win32,60,60e8550594adb1982c6cb1b5,60f09dcb1529737708cd9610,,,,,D,,,,,,,,,,,,,,,2,1,1.2514,0,84,84,84,1,2,NEW,SIMILAR,,,,,,,,
,,,,,,,,,,,,,,,,TestWords/RAY_PA_TI.wav,,60de3b24940c209d729e32a5,2021-07-15_21h44.54.939,Agingstudy_mst,2020.2.10,Win32,60,60e8550594adb1982c6cb1b5,60f09dcb1529737708cd9610,,,,,D,,,,,,,,,,,,,,,1,1,0.2152,0,85,85,85,1,1,OLD,OLD,,,,,,,,
,,,,,,,,,,,,,,,,TestWords/HI_NAY_VA.wav,,60de3b24940c209d729e32a5,2021-07-15_21h44.54.939,Agingstudy_mst,2020.2.10,Win32,60,60e8550594adb1982c6cb1b5,60f09dcb1529737708cd9610,,,,,D,,,,,,,,,,,,,,,2,1,0.3045,0,86,86,86,1,2,NEW,NEW,,,,,,,,
,,,,,,,,,,,,,,,,TestWords/DAI_RU_CHI.wav,,60de3b24940c209d729e32a5,2021-07-15_21h44.54.939,Agingstudy_mst,2020.2.10,Win32,60,60e8550594adb1982c6cb1b5,60f09dcb1529737708cd9610,,,,,D,,,,,,,,,,,,,,,1,1,0.6664,0,87,87,87,1,1,OLD,OLD,,,,,,,,
,,,,,,,,,,,,,,,,TestWords/TAI_GI_SA.wav,,60de3b24940c209d729e32a5,2021-07-15_21h44.54.939,Agingstudy_mst,2020.2.10,Win32,60,60e8550594adb1982c6cb1b5,60f09dcb1529737708cd9610,,,,,D,,,,,,,,,,,,,,,1,0,1.2338,0,88,88,88,1,2,NEW,SIMILAR,,,,,,,,
,,,,,,,,,,,,,,,,TestWords/KO_SU_FAI.wav,,60de3b24940c209d729e32a5,2021-07-15_21h44.54.939,Agingstudy_mst,2020.2.10,Win32,60,60e8550594adb1982c6cb1b5,60f09dcb1529737708cd9610,,,,,D,,,,,,,,,,,,,,,1,1,0.5577,0,89,89,89,1,1,OLD,OLD,,,,,,,,
,,,,,,,,,,,,,,,,TestWords/GA_MU_ZI.wav,,60de3b24940c209d729e32a5,2021-07-15_21h44.54.939,Agingstudy_mst,2020.2.10,Win32,60,60e8550594adb1982c6cb1b5,60f09dcb1529737708cd9610,,,,,D,,,,,,,,,,,,,,,2,0,2.3367,0,90,90,90,1,1,OLD,OLD,,,,,,,,
,,,,,,,,,,,,,,,,TestWords/PAI_LU_WA.wav,,60de3b24940c209d729e32a5,2021-07-15_21h44.54.939,Agingstudy_mst,2020.2.10,Win32,60,60e8550594adb1982c6cb1b5,60f09dcb1529737708cd9610,,,,,D,,,,,,,,,,,,,,,2,1,0.772,0,91,91,91,1,2,NEW,NEW,,,,,,,,
,,,,,,,,,,,,,,,,TestWords/KAI_LAY_TA.wav,,60de3b24940c209d729e32a5,2021-07-15_21h44.54.939,Agingstudy_mst,2020.2.10,Win32,60,60e8550594adb1982c6cb1b5,60f09dcb1529737708cd9610,,,,,D,,,,,,,,,,,,,,,1,1,0.437,0,92,92,92,1,1,OLD,OLD,,,,,,,,
,,,,,,,,,,,,,,,,TestWords/MO_PU_DAY.wav,,60de3b24940c209d729e32a5,2021-07-15_21h44.54.939,Agingstudy_mst,2020.2.10,Win32,60,60e8550594adb1982c6cb1b5,60f09dcb1529737708cd9610,,,,,D,,,,,,,,,,,,,,,2,1,1.7061,0,93,93,93,1,2,NEW,SIMILAR,,,,,,,,
,,,,,,,,,,,,,,,,TestWords/KO_SU_FAI.wav,,60de3b24940c209d729e32a5,2021-07-15_21h44.54.939,Agingstudy_mst,2020.2.10,Win32,60,60e8550594adb1982c6cb1b5,60f09dcb1529737708cd9610,,,,,D,,,,,,,,,,,,,,,1,1,0.194,0,94,94,94,1,1,OLD,OLD,,,,,,,,
,,,,,,,,,,,,,,,,TestWords/GI_SA_TAI.wav,,60de3b24940c209d729e32a5,2021-07-15_21h44.54.939,Agingstudy_mst,2020.2.10,Win32,60,60e8550594adb1982c6cb1b5,60f09dcb1529737708cd9610,,,,,D,,,,,,,,,,,,,,,1,0,0.7616,0,95,95,95,1,2,NEW,SIMILAR,,,,,,,,
,,,,,,,,,,,,,,,,TestWords/HO_NAY_VA.wav,,60de3b24940c209d729e32a5,2021-07-15_21h44.54.939,Agingstudy_mst,2020.2.10,Win32,60,60e8550594adb1982c6cb1b5,60f09dcb1529737708cd9610,,,,,D,,,,,,,,,,,,,,,1,0,0.7355,0,96,96,96,1,2,NEW,NEW,,,,,,,,
,,,,,,,,,,,,,,,,TestWords/GU_CHAI_PI.wav,,60de3b24940c209d729e32a5,2021-07-15_21h44.54.939,Agingstudy_mst,2020.2.10,Win32,60,60e8550594adb1982c6cb1b5,60f09dcb1529737708cd9610,,,,,D,,,,,,,,,,,,,,,2,1,0.6831,0,97,97,97,1,2,NEW,NEW,,,,,,,,
,,,,,,,,,,,,,,,,TestWords/KO_SU_FAI.wav,,60de3b24940c209d729e32a5,2021-07-15_21h44.54.939,Agingstudy_mst,2020.2.10,Win32,60,60e8550594adb1982c6cb1b5,60f09dcb1529737708cd9610,,,,,D,,,,,,,,,,,,,,,1,1,0.7023,0,98,98,98,1,1,OLD,OLD,,,,,,,,
,,,,,,,,,,,,,,,,TestWords/WAI_RO_JU.wav,,60de3b24940c209d729e32a5,2021-07-15_21h44.54.939,Agingstudy_mst,2020.2.10,Win32,60,60e8550594adb1982c6cb1b5,60f09dcb1529737708cd9610,,,,,D,,,,,,,,,,,,,,,2,1,1.0111,0,99,99,99,1,2,NEW,NEW,,,,,,,,
,,,,,,,,,,,,,,,,,,60de3b24940c209d729e32a5,2021-07-15_21h44.54.939,Agingstudy_mst,2020.2.10,Win32,60,60e8550594adb1982c6cb1b5,60f09dcb1529737708cd9610,,,,,,,,,,,,,,,,,,,,,,,,,,,,,,,0,0,0,0,1,,,
,,,,,,,,,,,,,,,,,,60de3b24940c209d729e32a5,2021-07-15_21h44.54.939,Agingstudy_mst,2020.2.10,Win32,60,60e8550594adb1982c6cb1b5,60f09dcb1529737708cd9610,,,,,,,,,,,,,,,,,,,,,,,,,,,,,,,,,,,,return,7.5666,
